// General information: 
//  MT Manager version: 2022.2.0 
//  XDA version: 2022.2.0 build 7381 rev 124627 built on 2023-07-19
// Device information: 
//  DeviceId: 00B44730
//  ProductCode: MTW2-3A7G6
//  Firmware Version: 4.3.5
//  Hardware Version: 2.0.0
// Device settings: 
//  Filter Profile: human(46.1)
//  Option Flags: Orientation Smoother Disabled, Position/Velocity Smoother Disabled, Continuous Zero Rotation Update Disabled, AHS Disabled, ICC Disabled
// Coordinate system: ENU
PacketCounter	SampleTimeFine	Roll	Pitch	Yaw
24680		13.435062	-5.980340	-9.881459
24681		13.438577	-5.982690	-9.884058
24682		13.441246	-5.983235	-9.886037
24683		13.432728	-5.978900	-9.887547
24684		13.427872	-5.976353	-9.886514
24685		13.422490	-5.974507	-9.889113
24686		13.415649	-5.975589	-9.889491
24687		13.407405	-5.971441	-9.892903
24688		13.407063	-5.964162	-9.897798
24689		13.401635	-5.961209	-9.903589
24690		13.400419	-5.959374	-9.904800
24691		13.404474	-5.955839	-9.912328
24692		13.408703	-5.955559	-9.916820
24693		13.409687	-5.954338	-9.924839
24694		13.414725	-5.953833	-9.928962
24695		13.412904	-5.954613	-9.933599
24696		13.406990	-5.959667	-9.934911
24697		13.401883	-5.960966	-9.938717
24698		13.399434	-5.962160	-9.944224
24699		13.393443	-5.963134	-9.954579
24700		13.387974	-5.963232	-9.967074
24701		13.389875	-5.955751	-9.978717
24702		13.389309	-5.945831	-9.985244
24703		13.385070	-5.943082	-9.994939
24704		13.383128	-5.942007	-10.004804
24705		13.383770	-5.935655	-10.015685
24706		13.382172	-5.932367	-10.024716
24707		13.376552	-5.926363	-10.035234
24708		13.368797	-5.917868	-10.041997
24709		13.358747	-5.910377	-10.050860
24710		13.349963	-5.908517	-10.060129
24711		13.342472	-5.901995	-10.072967
24712		13.326800	-5.901291	-10.081320
24713		13.310678	-5.898878	-10.090604
24714		13.300579	-5.897194	-10.099460
24715		13.292423	-5.896415	-10.104427
24716		13.285216	-5.898362	-10.109064
24717		13.278445	-5.901516	-10.115979
24718		13.274859	-5.907463	-10.119118
24719		13.274146	-5.910651	-10.121571
24720		13.274588	-5.913159	-10.126432
24721		13.267326	-5.912501	-10.133252
24722		13.264296	-5.914238	-10.141070
24723		13.263199	-5.911014	-10.155253
24724		13.258210	-5.913094	-10.168219
24725		13.249590	-5.916819	-10.179654
24726		13.244808	-5.924825	-10.187251
24727		13.233287	-5.933651	-10.192045
24728		13.227273	-5.950292	-10.196629
24729		13.216269	-5.966404	-10.209259
24730		13.207517	-5.975910	-10.215448
24731		13.197136	-5.980919	-10.222438
24732		13.191316	-5.989799	-10.228299
24733		13.187782	-5.995646	-10.235798
24734		13.189996	-6.003254	-10.237798
24735		13.188448	-6.012913	-10.241794
24736		13.188667	-6.025120	-10.245047
24737		13.188925	-6.032390	-10.248173
24738		13.194758	-6.041679	-10.252251
24739		13.200373	-6.045567	-10.260208
24740		13.208131	-6.053165	-10.262555
24741		13.218795	-6.064726	-10.268238
24742		13.220330	-6.082129	-10.279402
24743		13.218235	-6.094663	-10.302849
24744		13.208945	-6.102153	-10.329715
24745		13.204144	-6.110398	-10.359707
24746		13.204231	-6.123159	-10.387207
24747		13.200186	-6.140921	-10.417746
24748		13.192435	-6.160498	-10.446991
24749		13.181584	-6.177292	-10.479782
24750		13.173618	-6.192875	-10.514074
24751		13.166766	-6.205874	-10.551804
24752		13.167810	-6.220848	-10.586910
24753		13.166178	-6.238913	-10.625255
24754		13.161483	-6.274183	-10.661861
24755		13.159501	-6.311337	-10.700009
24756		13.161155	-6.349245	-10.736128
24757		13.172120	-6.383625	-10.777170
24758		13.199532	-6.414594	-10.819418
24759		13.235484	-6.442977	-10.866995
24760		13.259240	-6.471046	-10.916958
24761		13.253794	-6.492055	-10.972239
24762		13.245445	-6.501286	-11.025935
24763		13.263938	-6.506083	-11.085006
24764		13.292613	-6.525284	-11.146769
24765		13.318890	-6.559155	-11.214380
24766		13.343239	-6.601445	-11.284025
24767		13.362858	-6.648837	-11.359640
24768		13.386928	-6.696440	-11.442435
24769		13.415903	-6.736650	-11.535205
24770		13.455133	-6.766347	-11.630402
24771		13.504934	-6.796311	-11.727509
24772		13.559070	-6.834819	-11.818055
24773		13.606692	-6.873092	-11.911325
24774		13.653094	-6.910734	-12.006105
24775		13.684402	-6.938599	-12.106080
24776		13.704878	-6.963719	-12.212996
24777		13.722722	-6.984604	-12.331456
24778		13.752099	-7.008819	-12.456439
24779		13.792876	-7.033914	-12.589380
24780		13.839409	-7.065658	-12.729081
24781		13.886418	-7.104364	-12.874518
24782		13.935684	-7.147212	-13.020919
24783		13.973749	-7.189991	-13.172718
24784		14.005735	-7.231567	-13.332638
24785		14.049938	-7.261992	-13.495532
24786		14.120673	-7.296472	-13.655205
24787		14.194206	-7.340350	-13.816425
24788		14.267926	-7.394764	-13.971973
24789		14.336920	-7.451510	-14.125859
24790		14.404725	-7.504740	-14.275360
24791		14.459819	-7.557594	-14.424273
24792		14.523744	-7.602495	-14.575133
24793		14.576376	-7.636044	-14.732540
24794		14.580485	-7.668826	-14.915778
24795		14.555912	-7.681956	-15.111677
24796		14.582891	-7.674603	-15.297520
24797		14.647526	-7.682802	-15.469793
24798		14.714477	-7.729430	-15.632528
24799		14.751354	-7.796608	-15.792378
24800		14.761761	-7.862899	-15.950619
24801		14.771811	-7.916700	-16.117206
24802		14.802015	-7.959496	-16.292396
24803		14.863778	-7.990300	-16.472018
24804		14.943259	-8.029162	-16.640135
24805		15.031665	-8.075356	-16.805847
24806		15.135193	-8.125708	-16.962859
24807		15.224212	-8.178974	-17.121491
24808		15.293987	-8.237158	-17.284457
24809		15.353286	-8.282226	-17.455718
24810		15.412835	-8.308996	-17.635454
24811		15.460334	-8.327706	-17.827798
24812		15.522342	-8.340686	-18.017814
24813		15.612403	-8.357047	-18.198172
24814		15.707127	-8.398077	-18.370920
24815		15.793701	-8.468401	-18.545037
24816		15.867548	-8.552320	-18.725641
24817		15.942189	-8.631420	-18.917416
24818		16.023854	-8.697319	-19.119382
24819		16.122585	-8.759980	-19.336449
24820		16.238715	-8.821644	-19.556831
24821		16.347164	-8.882715	-19.773748
24822		16.425549	-8.958616	-19.983424
24823		16.473679	-9.038341	-20.196643
24824		16.506195	-9.117801	-20.414850
24825		16.546967	-9.183792	-20.648850
24826		16.601747	-9.248790	-20.897110
24827		16.673137	-9.311079	-21.165157
24828		16.720876	-9.380215	-21.438405
24829		16.718327	-9.455266	-21.717723
24830		16.703032	-9.520684	-22.007826
24831		16.719123	-9.583914	-22.317768
24832		16.749079	-9.658738	-22.623731
24833		16.771692	-9.750313	-22.923207
24834		16.796559	-9.846904	-23.219419
24835		16.824070	-9.937105	-23.523979
24836		16.836567	-10.031734	-23.827965
24837		16.845385	-10.126228	-24.133233
24838		16.869480	-10.215904	-24.450725
24839		16.876772	-10.303251	-24.772254
24840		16.892778	-10.381507	-25.096996
24841		16.937380	-10.456631	-25.433626
24842		16.978311	-10.523800	-25.779965
24843		17.010350	-10.600024	-26.124411
24844		17.055113	-10.682774	-26.469633
24845		17.082613	-10.760054	-26.811107
24846		17.098578	-10.832126	-27.141532
24847		17.096816	-10.897507	-27.473018
24848		17.098464	-10.964567	-27.801025
24849		17.107904	-11.021216	-28.128326
24850		17.118407	-11.066127	-28.444547
24851		17.138534	-11.109004	-28.763372
24852		17.159305	-11.166137	-29.085346
24853		17.203075	-11.227202	-29.410812
24854		17.291669	-11.276792	-29.735557
24855		17.412228	-11.320692	-30.056113
24856		17.562998	-11.369979	-30.373985
24857		17.689660	-11.424881	-30.677373
24858		17.777324	-11.482877	-30.967419
24859		17.829596	-11.531283	-31.255693
24860		17.878902	-11.570772	-31.551808
24861		17.926481	-11.597568	-31.860616
24862		17.974525	-11.616906	-32.168602
24863		18.013798	-11.635954	-32.478151
24864		18.045472	-11.671546	-32.779600
24865		18.067021	-11.715135	-33.085694
24866		18.100104	-11.753654	-33.390991
24867		18.152330	-11.793473	-33.700653
24868		18.214806	-11.838378	-34.020931
24869		18.263644	-11.889728	-34.353876
24870		18.284517	-11.948250	-34.700031
24871		18.283905	-11.986583	-35.056450
24872		18.281794	-12.010216	-35.413809
24873		18.301784	-12.034709	-35.771681
24874		18.344023	-12.070593	-36.133327
24875		18.376806	-12.120020	-36.500937
24876		18.418862	-12.169571	-36.869598
24877		18.465476	-12.209576	-37.234650
24878		18.505560	-12.252656	-37.586769
24879		18.532457	-12.285582	-37.922238
24880		18.537619	-12.320796	-38.239245
24881		18.524788	-12.350912	-38.560304
24882		18.532082	-12.372068	-38.880067
24883		18.553741	-12.388260	-39.207726
24884		18.605386	-12.413108	-39.551840
24885		18.688949	-12.435558	-39.900796
24886		18.776946	-12.446918	-40.241437
24887		18.867054	-12.456531	-40.574007
24888		18.946252	-12.457953	-40.893286
24889		19.022499	-12.463236	-41.201309
24890		19.114048	-12.484469	-41.517910
24891		19.196224	-12.514658	-41.849048
24892		19.278251	-12.545113	-42.199641
24893		19.352839	-12.562156	-42.565585
24894		19.432832	-12.551629	-42.924443
24895		19.512216	-12.519170	-43.268122
24896		19.559451	-12.479854	-43.588962
24897		19.553137	-12.431970	-43.885361
24898		19.464012	-12.378203	-44.166770
24899		19.324210	-12.337094	-44.446703
24900		19.178886	-12.299656	-44.746785
24901		19.080268	-12.261443	-45.068446
24902		19.019088	-12.204141	-45.393513
24903		18.972568	-12.135848	-45.714055
24904		18.948632	-12.090444	-46.032977
24905		18.937941	-12.052143	-46.351805
24906		18.923772	-12.026514	-46.662258
24907		18.881734	-12.009788	-46.969927
24908		18.808786	-12.010877	-47.275298
24909		18.723437	-12.013983	-47.585655
24910		18.652845	-11.999485	-47.892533
24911		18.580455	-11.962246	-48.195913
24912		18.489333	-11.916115	-48.491281
24913		18.380601	-11.859296	-48.786344
24914		18.253516	-11.805536	-49.069552
24915		18.118104	-11.759282	-49.346905
24916		17.994926	-11.718705	-49.625576
24917		17.910515	-11.680150	-49.907491
24918		17.843782	-11.642756	-50.195167
24919		17.780455	-11.593938	-50.487906
24920		17.700050	-11.528538	-50.771635
24921		17.620308	-11.472009	-51.058347
24922		17.576635	-11.431512	-51.341278
24923		17.566579	-11.396498	-51.621638
24924		17.581677	-11.344516	-51.881811
24925		17.594961	-11.277105	-52.117697
24926		17.571054	-11.210764	-52.335585
24927		17.526052	-11.163160	-52.554725
24928		17.492746	-11.118590	-52.779167
24929		17.457918	-11.068524	-53.000939
24930		17.434074	-11.016818	-53.216536
24931		17.427289	-10.966167	-53.435661
24932		17.452676	-10.925680	-53.657150
24933		17.524055	-10.898102	-53.882395
24934		17.589823	-10.859398	-54.091895
24935		17.608670	-10.818084	-54.287374
24936		17.597965	-10.776245	-54.474454
24937		17.528573	-10.727252	-54.655768
24938		17.443523	-10.673282	-54.839655
24939		17.409152	-10.642589	-55.033596
24940		17.423017	-10.628736	-55.235414
24941		17.452793	-10.612475	-55.433765
24942		17.486964	-10.596091	-55.618114
24943		17.499845	-10.584482	-55.794994
24944		17.502135	-10.575398	-55.971814
24945		17.495347	-10.564572	-56.152304
24946		17.474341	-10.544832	-56.327550
24947		17.486006	-10.550441	-56.514450
24948		17.533216	-10.559729	-56.702881
24949		17.593993	-10.556297	-56.884417
24950		17.642894	-10.549746	-57.051257
24951		17.656315	-10.535612	-57.210701
24952		17.670206	-10.519366	-57.368793
24953		17.677663	-10.504327	-57.532130
24954		17.662064	-10.496199	-57.699600
24955		17.683103	-10.499194	-57.875123
24956		17.711201	-10.487481	-58.044229
24957		17.702747	-10.465683	-58.211242
24958		17.694846	-10.451544	-58.386597
24959		17.711065	-10.458389	-58.578407
24960		17.779348	-10.473341	-58.779890
24961		17.822283	-10.472308	-58.973915
24962		17.833736	-10.458138	-59.153916
24963		17.847955	-10.433570	-59.325671
24964		17.849905	-10.395005	-59.483182
24965		17.842245	-10.341774	-59.634049
24966		17.841574	-10.298821	-59.789812
24967		17.887225	-10.293496	-59.958658
24968		17.949010	-10.280329	-60.112372
24969		17.978187	-10.218118	-60.234759
24970		17.975261	-10.129091	-60.325567
24971		17.960384	-10.052788	-60.407320
24972		17.953332	-10.002163	-60.490114
24973		17.950878	-9.959929	-60.584569
24974		17.952115	-9.921352	-60.681972
24975		17.996997	-9.902561	-60.783666
24976		18.046746	-9.880576	-60.867464
24977		18.078326	-9.829558	-60.930652
24978		18.100208	-9.761413	-60.982278
24979		18.108268	-9.688395	-61.030214
24980		18.105856	-9.615006	-61.074711
24981		18.093916	-9.541610	-61.124777
24982		18.102254	-9.482515	-61.177494
24983		18.135653	-9.443411	-61.243087
24984		18.178314	-9.409389	-61.303347
24985		18.212379	-9.361537	-61.349244
24986		18.238148	-9.303190	-61.381732
24987		18.250644	-9.234676	-61.404201
24988		18.242234	-9.160478	-61.428348
24989		18.228311	-9.091567	-61.461972
24990		18.247708	-9.035955	-61.499039
24991		18.271264	-8.980716	-61.531562
24992		18.285391	-8.920220	-61.554980
24993		18.302966	-8.863334	-61.573881
24994		18.305626	-8.807909	-61.589720
24995		18.294885	-8.745870	-61.608377
24996		18.301763	-8.684350	-61.632221
24997		18.313949	-8.637726	-61.656692
24998		18.323542	-8.603555	-61.672610
24999		18.349369	-8.571040	-61.684809
25000		18.373005	-8.539784	-61.688409
25001		18.375591	-8.500876	-61.687525
25002		18.372939	-8.461324	-61.684939
25003		18.371983	-8.438072	-61.693454
25004		18.382511	-8.432343	-61.704120
25005		18.403062	-8.427147	-61.717245
25006		18.423859	-8.415471	-61.725415
25007		18.435346	-8.396759	-61.727911
25008		18.439921	-8.377439	-61.722303
25009		18.440923	-8.360083	-61.714768
25010		18.441158	-8.355278	-61.701729
25011		18.433648	-8.354157	-61.695492
25012		18.431846	-8.355065	-61.688923
25013		18.434662	-8.348646	-61.686835
25014		18.438101	-8.337135	-61.683599
25015		18.445459	-8.319839	-61.680013
25016		18.448126	-8.303042	-61.674848
25017		18.444208	-8.296892	-61.673325
25018		18.434816	-8.290618	-61.674094
25019		18.424995	-8.283835	-61.679855
25020		18.421833	-8.276174	-61.686947
25021		18.419050	-8.260842	-61.697273
25022		18.413452	-8.240501	-61.704615
25023		18.399293	-8.221802	-61.713870
25024		18.393548	-8.216882	-61.724518
25025		18.400326	-8.206640	-61.742585
25026		18.403364	-8.201025	-61.758054
25027		18.413365	-8.196011	-61.772533
25028		18.418536	-8.191913	-61.780331
25029		18.409906	-8.185458	-61.786652
25030		18.398666	-8.176615	-61.790746
25031		18.384672	-8.160627	-61.798593
25032		18.375907	-8.155742	-61.805903
25033		18.368782	-8.149869	-61.816474
25034		18.361814	-8.135105	-61.825880
25035		18.350384	-8.122858	-61.835281
25036		18.347382	-8.117316	-61.844058
25037		18.359777	-8.112009	-61.855680
25038		18.381590	-8.107990	-61.863391
25039		18.388956	-8.105250	-61.865994
25040		18.383440	-8.093963	-61.864601
25041		18.369077	-8.088360	-61.868324
25042		18.359558	-8.092223	-61.877953
25043		18.366441	-8.100100	-61.891797
25044		18.387088	-8.107353	-61.903922
25045		18.402974	-8.108070	-61.916050
25046		18.399167	-8.098989	-61.916661
25047		18.374988	-8.094599	-61.913582
25048		18.355666	-8.096842	-61.911970
25049		18.341996	-8.104184	-61.914166
25050		18.340728	-8.113199	-61.920888
25051		18.340685	-8.121068	-61.926229
25052		18.340137	-8.123083	-61.924405
25053		18.327149	-8.120897	-61.925137
25054		18.316101	-8.126531	-61.926856
25055		18.305452	-8.132738	-61.932322
25056		18.298883	-8.150484	-61.937649
25057		18.300542	-8.161690	-61.945229
25058		18.291989	-8.160862	-61.945320
25059		18.278673	-8.160258	-61.944684
25060		18.259273	-8.167588	-61.940212
25061		18.242838	-8.175132	-61.937077
25062		18.237333	-8.183168	-61.934395
25063		18.225815	-8.186156	-61.931176
25064		18.221233	-8.187573	-61.927850
25065		18.207821	-8.180603	-61.921436
25066		18.187823	-8.177775	-61.913931
25067		18.158245	-8.178728	-61.911834
25068		18.139759	-8.175868	-61.906009
25069		18.130284	-8.169969	-61.900155
25070		18.112611	-8.165499	-61.892159
25071		18.098182	-8.155485	-61.888542
25072		18.083933	-8.144912	-61.881067
25073		18.061465	-8.135361	-61.872361
25074		18.046162	-8.132876	-61.863268
25075		18.035109	-8.127368	-61.859626
25076		18.028276	-8.120019	-61.850686
25077		18.016948	-8.121661	-61.842357
25078		18.006830	-8.124281	-61.828315
25079		17.994795	-8.122822	-61.809441
25080		17.986752	-8.119785	-61.787612
25081		17.980864	-8.126638	-61.770205
25082		17.974283	-8.130485	-61.754133
25083		17.968205	-8.135762	-61.736203
25084		17.964861	-8.143723	-61.714899
25085		17.960213	-8.152875	-61.690701
25086		17.951318	-8.162033	-61.658680
25087		17.934029	-8.163779	-61.625098
25088		17.913994	-8.167963	-61.588719
25089		17.893232	-8.177121	-61.558557
25090		17.882787	-8.193211	-61.527630
25091		17.878735	-8.206196	-61.496624
25092		17.877835	-8.214702	-61.460637
25093		17.876248	-8.219250	-61.420945
25094		17.864302	-8.226546	-61.377346
25095		17.843988	-8.236079	-61.335699
25096		17.829562	-8.249934	-61.291067
25097		17.820023	-8.263078	-61.248007
25098		17.810289	-8.277385	-61.200438
25099		17.792479	-8.289479	-61.151944
25100		17.772938	-8.303651	-61.101472
25101		17.759035	-8.311423	-61.053380
25102		17.748355	-8.325224	-61.003717
25103		17.745542	-8.341372	-60.955815
25104		17.750573	-8.351515	-60.903200
25105		17.739080	-8.349921	-60.842497
25106		17.721287	-8.352044	-60.774122
25107		17.698506	-8.355899	-60.706488
25108		17.680016	-8.365223	-60.642655
25109		17.675749	-8.375729	-60.584810
25110		17.684672	-8.387922	-60.530170
25111		17.696698	-8.397283	-60.479341
25112		17.707930	-8.404179	-60.426168
25113		17.710663	-8.411582	-60.368898
25114		17.713047	-8.418765	-60.313635
25115		17.706326	-8.431202	-60.256122
25116		17.701551	-8.444598	-60.198807
25117		17.705397	-8.454391	-60.139810
25118		17.715284	-8.461577	-60.077148
25119		17.724127	-8.459816	-60.014053
25120		17.722360	-8.452996	-59.943188
25121		17.712685	-8.444489	-59.871217
25122		17.714469	-8.438875	-59.798380
25123		17.724614	-8.446355	-59.727300
25124		17.741304	-8.460896	-59.660484
25125		17.770784	-8.473054	-59.596542
25126		17.808237	-8.481710	-59.529732
25127		17.832035	-8.493141	-59.460789
25128		17.843132	-8.514155	-59.388403
25129		17.854934	-8.541660	-59.320898
25130		17.863938	-8.583573	-59.256374
25131		17.894893	-8.637592	-59.203266
25132		17.942687	-8.683386	-59.146037
25133		17.976868	-8.713970	-59.078974
25134		17.999934	-8.739014	-58.998476
25135		18.004774	-8.762114	-58.908100
25136		18.009637	-8.782617	-58.812320
25137		18.014609	-8.803241	-58.709944
25138		18.025625	-8.816600	-58.603795
25139		18.038859	-8.829655	-58.494325
25140		18.055629	-8.849908	-58.383285
25141		18.080349	-8.873518	-58.280909
25142		18.108258	-8.895562	-58.171041
25143		18.132809	-8.909895	-58.053778
25144		18.151146	-8.926285	-57.926989
25145		18.164133	-8.943652	-57.800656
25146		18.186979	-8.956097	-57.667879
25147		18.199487	-8.960230	-57.525893
25148		18.198473	-8.962326	-57.375467
25149		18.198163	-8.963873	-57.224188
25150		18.201463	-8.974734	-57.070265
25151		18.212333	-8.988440	-56.924761
25152		18.234418	-8.993705	-56.773795
25153		18.255041	-8.992997	-56.616555
25154		18.260828	-8.997598	-56.454092
25155		18.256785	-9.000882	-56.295118
25156		18.260150	-9.014521	-56.139857
25157		18.282480	-9.026581	-55.983751
25158		18.306245	-9.024354	-55.810784
25159		18.300551	-9.008971	-55.618905
25160		18.281495	-8.991024	-55.419343
25161		18.259247	-8.970336	-55.221292
25162		18.243664	-8.947837	-55.013088
25163		18.243058	-8.939111	-54.809387
25164		18.249030	-8.934524	-54.610279
25165		18.262788	-8.920880	-54.414100
25166		18.295220	-8.906524	-54.214091
25167		18.329291	-8.889324	-54.004916
25168		18.346165	-8.874670	-53.789738
25169		18.353724	-8.859108	-53.572641
25170		18.347877	-8.832043	-53.350150
25171		18.346994	-8.794216	-53.133405
25172		18.375017	-8.766301	-52.924649
25173		18.436975	-8.754069	-52.733779
25174		18.545288	-8.745002	-52.552913
25175		18.670076	-8.711930	-52.367419
25176		18.775739	-8.663448	-52.165649
25177		18.821486	-8.619699	-51.948635
25178		18.826647	-8.579622	-51.734060
25179		18.826713	-8.551319	-51.530397
25180		18.844388	-8.542102	-51.349148
25181		18.905536	-8.559855	-51.188431
25182		19.006190	-8.570955	-51.031754
25183		19.117310	-8.553203	-50.859974
25184		19.208421	-8.512829	-50.659240
25185		19.243814	-8.470324	-50.432733
25186		19.246731	-8.417400	-50.189266
25187		19.244450	-8.349813	-49.941325
25188		19.258182	-8.269438	-49.682830
25189		19.295479	-8.212932	-49.423316
25190		19.372463	-8.213549	-49.179248
25191		19.494427	-8.228902	-48.951857
25192		19.624087	-8.228675	-48.710971
25193		19.736664	-8.214481	-48.454578
25194		19.828852	-8.206053	-48.191967
25195		19.885208	-8.189952	-47.926759
25196		19.937323	-8.162962	-47.653904
25197		19.992380	-8.123284	-47.382919
25198		20.059249	-8.072269	-47.119016
25199		20.138523	-8.019011	-46.864975
25200		20.228179	-8.002813	-46.621368
25201		20.315304	-8.036665	-46.382303
25202		20.392030	-8.079821	-46.124398
25203		20.445226	-8.074520	-45.842699
25204		20.498001	-8.015437	-45.538255
25205		20.558166	-7.928738	-45.227187
25206		20.630800	-7.855763	-44.920668
25207		20.719943	-7.817793	-44.633397
25208		20.834116	-7.838763	-44.364396
25209		20.959272	-7.905611	-44.102072
25210		21.090309	-8.000044	-43.823983
25211		21.178452	-8.043020	-43.530331
25212		21.225545	-8.054608	-43.213903
25213		21.233284	-8.061872	-42.884742
25214		21.205857	-8.081662	-42.548994
25215		21.147304	-8.109771	-42.209637
25216		21.082080	-8.135090	-41.863935
25217		21.000395	-8.138213	-41.510839
25218		20.905824	-8.127356	-41.149500
25219		20.818595	-8.119307	-40.794141
25220		20.754692	-8.141958	-40.453134
25221		20.707721	-8.171624	-40.125577
25222		20.649561	-8.189823	-39.809977
25223		20.541973	-8.208902	-39.514685
25224		20.382221	-8.267673	-39.271113
25225		20.221690	-8.325218	-39.080513
25226		20.124352	-8.343984	-38.890184
25227		20.004230	-8.299699	-38.658041
25228		19.823128	-8.222757	-38.371205
25229		19.625748	-8.140707	-38.065370
25230		19.408837	-8.071596	-37.757490
25231		19.215252	-8.019001	-37.465432
25232		19.093426	-7.991396	-37.182888
25233		18.994304	-7.968122	-36.915603
25234		18.897436	-7.965185	-36.641290
25235		18.806449	-7.970753	-36.342052
25236		18.724897	-7.963701	-36.011106
25237		18.654039	-7.941167	-35.654354
25238		18.610478	-7.930086	-35.280791
25239		18.625553	-7.956367	-34.921758
25240		18.674806	-8.024184	-34.578837
25241		18.713876	-8.049215	-34.249415
25242		18.741902	-8.029169	-33.923897
25243		18.739242	-7.966881	-33.603279
25244		18.710922	-7.903564	-33.287716
25245		18.671345	-7.844798	-32.975861
25246		18.622332	-7.786814	-32.663161
25247		18.544952	-7.718289	-32.342261
25248		18.425723	-7.664403	-32.006119
25249		18.272779	-7.620012	-31.653501
25250		18.099597	-7.584554	-31.284896
25251		17.916510	-7.554192	-30.911405
25252		17.749539	-7.528056	-30.536194
25253		17.594610	-7.492506	-30.147166
25254		17.423915	-7.442298	-29.741429
25255		17.223529	-7.378317	-29.333910
25256		17.021636	-7.309357	-28.939695
25257		16.833331	-7.250031	-28.575656
25258		16.660284	-7.202228	-28.229964
25259		16.517183	-7.156649	-27.890203
25260		16.402314	-7.118539	-27.540348
25261		16.281699	-7.083767	-27.178914
25262		16.154169	-7.050441	-26.796070
25263		16.039298	-7.027593	-26.414189
25264		15.949783	-7.010634	-26.049960
25265		15.865321	-6.994105	-25.691124
25266		15.781214	-6.968758	-25.324289
25267		15.676417	-6.924827	-24.951089
25268		15.529830	-6.871237	-24.572053
25269		15.356408	-6.813110	-24.200560
25270		15.175380	-6.759180	-23.853552
25271		14.998096	-6.712633	-23.530869
25272		14.849233	-6.674884	-23.211720
25273		14.732752	-6.649237	-22.888015
25274		14.607229	-6.634724	-22.551041
25275		14.473703	-6.624910	-22.213297
25276		14.331733	-6.620520	-21.875328
25277		14.172259	-6.606277	-21.548775
25278		13.995921	-6.569484	-21.238731
25279		13.825599	-6.528172	-20.946994
25280		13.671716	-6.508800	-20.656986
25281		13.510162	-6.503158	-20.351350
25282		13.343022	-6.483661	-20.039887
25283		13.173260	-6.439151	-19.722574
25284		12.989484	-6.378001	-19.409268
25285		12.772127	-6.303962	-19.117575
25286		12.550833	-6.232296	-18.853114
25287		12.377007	-6.174299	-18.592190
25288		12.236727	-6.138212	-18.321469
25289		12.097816	-6.126297	-18.044636
25290		11.961169	-6.118068	-17.757329
25291		11.834985	-6.101195	-17.461606
25292		11.723770	-6.071707	-17.162612
25293		11.612963	-6.028995	-16.884553
25294		11.489053	-5.959993	-16.615959
25295		11.373160	-5.880577	-16.356205
25296		11.254299	-5.817605	-16.092261
25297		11.143211	-5.776819	-15.823970
25298		11.033658	-5.741175	-15.541093
25299		10.918389	-5.697282	-15.249640
25300		10.773647	-5.643614	-14.955828
25301		10.598055	-5.590745	-14.674351
25302		10.426544	-5.541909	-14.406221
25303		10.288903	-5.490935	-14.146396
25304		10.191794	-5.435496	-13.883576
25305		10.121256	-5.373798	-13.611026
25306		10.064640	-5.310987	-13.331872
25307		10.006451	-5.249425	-13.054137
25308		9.935624	-5.211352	-12.794827
25309		9.881408	-5.174087	-12.551005
25310		9.898799	-5.127328	-12.302329
25311		9.944786	-5.113335	-12.049447
25312		9.973076	-5.135781	-11.792767
25313		9.980786	-5.144896	-11.542342
25314		10.004945	-5.129630	-11.288426
25315		10.025575	-5.097346	-11.037520
25316		10.037569	-5.071827	-10.789652
25317		10.056102	-5.046839	-10.552527
25318		10.090505	-5.016193	-10.313921
25319		10.094495	-5.002905	-10.075146
25320		10.050106	-5.008240	-9.838734
25321		9.977297	-5.008979	-9.603856
25322		9.878905	-5.018292	-9.375166
25323		9.740206	-5.035146	-9.178280
25324		9.587466	-5.042882	-9.007569
25325		9.470688	-5.021515	-8.850822
25326		9.404816	-4.989311	-8.685863
25327		9.375725	-4.971878	-8.510919
25328		9.362792	-4.985410	-8.324581
25329		9.345991	-5.011497	-8.132810
25330		9.344723	-5.030271	-7.947358
25331		9.346773	-5.034904	-7.777647
25332		9.346981	-5.033867	-7.626889
25333		9.363524	-5.024194	-7.495335
25334		9.404683	-5.009028	-7.369096
25335		9.450407	-4.998923	-7.243686
25336		9.490080	-5.005025	-7.116606
25337		9.521228	-5.015866	-7.001095
25338		9.542942	-5.014122	-6.891068
25339		9.545886	-5.001080	-6.798760
25340		9.521062	-4.969648	-6.722282
25341		9.481547	-4.925354	-6.655440
25342		9.447359	-4.890065	-6.592536
25343		9.428774	-4.875461	-6.539006
25344		9.416821	-4.872705	-6.493464
25345		9.408098	-4.868925	-6.453420
25346		9.412742	-4.869052	-6.411920
25347		9.424510	-4.865381	-6.379226
25348		9.433319	-4.857048	-6.351270
25349		9.441253	-4.837653	-6.325742
25350		9.447929	-4.824818	-6.294722
25351		9.446835	-4.822970	-6.271392
25352		9.448312	-4.824543	-6.242990
25353		9.454634	-4.822443	-6.209054
25354		9.450991	-4.835294	-6.178651
25355		9.447742	-4.842474	-6.157198
25356		9.448596	-4.846802	-6.135914
25357		9.447562	-4.846446	-6.118052
25358		9.442785	-4.848276	-6.104693
25359		9.436958	-4.849289	-6.100155
25360		9.440781	-4.846658	-6.093771
25361		9.446362	-4.846619	-6.085448
25362		9.439678	-4.857507	-6.075222
25363		9.416518	-4.870066	-6.071174
25364		9.388675	-4.876645	-6.074614
25365		9.367286	-4.882840	-6.087223
25366		9.361721	-4.890795	-6.103631
25367		9.371996	-4.897239	-6.120311
25368		9.380683	-4.909453	-6.132153
25369		9.386270	-4.927137	-6.143747
25370		9.383081	-4.946242	-6.161519
25371		9.369877	-4.950617	-6.179021
25372		9.362321	-4.951869	-6.196001
25373		9.353772	-4.957452	-6.218395
25374		9.345602	-4.967455	-6.242134
25375		9.341652	-4.975359	-6.270972
25376		9.337035	-4.990959	-6.303136
25377		9.326510	-5.017275	-6.337892
25378		9.322177	-5.041900	-6.369896
25379		9.313527	-5.058794	-6.400036
25380		9.303292	-5.074799	-6.426694
25381		9.288908	-5.087657	-6.453645
25382		9.279172	-5.095658	-6.476614
25383		9.272889	-5.106928	-6.501731
25384		9.257320	-5.130923	-6.529432
25385		9.229973	-5.155021	-6.562736
25386		9.212148	-5.171181	-6.598865
25387		9.205701	-5.177150	-6.636861
25388		9.200019	-5.191826	-6.668826
25389		9.193726	-5.212580	-6.698884
25390		9.182450	-5.236037	-6.726521
25391		9.167712	-5.251622	-6.756379
25392		9.161265	-5.264589	-6.780660
25393		9.153754	-5.282132	-6.801777
25394		9.135995	-5.303833	-6.822740
25395		9.121250	-5.326886	-6.845592
25396		9.112704	-5.347315	-6.866071
25397		9.107045	-5.367850	-6.887446
25398		9.094766	-5.386312	-6.910445
25399		9.081948	-5.400527	-6.936197
25400		9.079553	-5.412280	-6.961769
25401		9.076088	-5.424090	-6.986423
25402		9.074372	-5.434245	-7.009872
25403		9.070660	-5.446743	-7.035688
25404		9.064820	-5.459813	-7.060719
25405		9.050383	-5.464139	-7.090681
25406		9.049147	-5.467938	-7.121785
25407		9.053147	-5.476387	-7.155163
25408		9.054388	-5.494890	-7.185727
25409		9.049158	-5.508616	-7.213409
25410		9.052636	-5.515810	-7.240072
25411		9.062358	-5.519615	-7.266556
25412		9.077842	-5.526010	-7.292159
25413		9.082243	-5.532982	-7.316403
25414		9.083492	-5.542884	-7.336186
25415		9.089094	-5.558460	-7.355754
25416		9.093859	-5.580444	-7.368652
25417		9.096444	-5.605173	-7.385443
25418		9.101788	-5.636324	-7.403382
25419		9.105418	-5.673083	-7.422652
25420		9.097559	-5.711069	-7.440917
25421		9.088097	-5.741687	-7.461202
25422		9.081581	-5.769295	-7.479015
25423		9.069881	-5.796397	-7.502575
25424		9.066600	-5.825802	-7.529982
25425		9.072442	-5.846546	-7.564544
25426		9.076674	-5.865921	-7.600894
25427		9.075119	-5.885247	-7.638761
25428		9.079499	-5.906453	-7.683199
25429		9.088288	-5.930811	-7.737981
25430		9.102026	-5.955844	-7.791441
25431		9.114836	-5.984873	-7.848104
25432		9.119539	-6.017591	-7.908018
25433		9.120356	-6.043026	-7.971373
25434		9.130778	-6.065882	-8.035830
25435		9.148210	-6.089096	-8.100929
25436		9.178017	-6.109929	-8.159550
25437		9.213779	-6.129261	-8.218602
25438		9.245853	-6.152056	-8.278802
25439		9.283232	-6.171557	-8.341654
25440		9.320178	-6.188475	-8.401631
25441		9.344185	-6.203573	-8.466352
25442		9.368046	-6.211932	-8.534393
25443		9.390337	-6.206690	-8.612206
25444		9.403825	-6.184228	-8.689598
25445		9.441371	-6.160797	-8.761862
25446		9.486579	-6.156449	-8.832782
25447		9.523355	-6.176274	-8.905087
25448		9.550011	-6.212122	-8.973091
25449		9.564164	-6.252919	-9.046996
25450		9.576575	-6.283371	-9.127332
25451		9.609902	-6.296702	-9.215345
25452		9.643151	-6.302900	-9.309984
25453		9.657897	-6.297996	-9.410029
25454		9.689917	-6.285672	-9.502892
25455		9.732637	-6.282077	-9.589714
25456		9.764129	-6.306332	-9.675026
25457		9.797569	-6.339069	-9.767621
25458		9.839389	-6.362491	-9.857188
25459		9.872598	-6.386242	-9.949656
25460		9.899443	-6.411329	-10.041830
25461		9.907687	-6.429406	-10.142622
25462		9.895300	-6.441868	-10.251619
25463		9.894932	-6.444266	-10.368084
25464		9.929862	-6.448496	-10.488272
25465		9.983758	-6.459546	-10.614312
25466		10.044813	-6.484202	-10.733157
25467		10.112834	-6.518609	-10.848717
25468		10.180418	-6.558904	-10.967400
25469		10.262104	-6.595952	-11.094317
25470		10.353160	-6.624649	-11.221972
25471		10.427974	-6.649476	-11.357561
25472		10.460875	-6.676360	-11.510325
25473		10.472675	-6.681941	-11.665736
25474		10.522103	-6.671181	-11.812465
25475		10.589747	-6.672712	-11.957763
25476		10.655487	-6.693646	-12.098023
25477		10.719452	-6.728535	-12.236013
25478		10.780891	-6.777223	-12.372510
25479		10.821910	-6.831520	-12.517812
25480		10.870496	-6.880310	-12.666031
25481		10.944111	-6.912745	-12.819985
25482		11.020118	-6.941250	-12.969982
25483		11.078367	-6.975986	-13.123350
25484		11.123794	-7.015652	-13.273336
25485		11.174508	-7.050534	-13.423020
25486		11.232419	-7.090975	-13.570528
25487		11.293793	-7.135489	-13.714735
25488		11.354807	-7.187709	-13.855489
25489		11.401302	-7.240232	-13.993890
25490		11.452766	-7.286419	-14.138029
25491		11.498087	-7.321991	-14.287352
25492		11.532323	-7.352445	-14.445055
25493		11.563726	-7.374009	-14.610483
25494		11.608330	-7.388156	-14.769690
25495		11.676306	-7.417732	-14.926844
25496		11.760303	-7.470440	-15.078756
25497		11.827829	-7.533818	-15.230675
25498		11.884068	-7.585956	-15.378866
25499		11.963940	-7.619123	-15.535794
25500		12.051518	-7.647214	-15.696858
25501		12.118575	-7.676186	-15.858627
25502		12.173761	-7.716538	-16.019675
25503		12.227972	-7.755831	-16.183285
25504		12.289937	-7.785898	-16.348966
25505		12.357852	-7.815806	-16.520792
25506		12.435902	-7.846886	-16.699529
25507		12.536320	-7.867327	-16.886662
25508		12.633932	-7.878602	-17.068563
25509		12.727766	-7.899915	-17.249225
25510		12.814876	-7.939365	-17.427798
25511		12.889808	-7.978691	-17.606878
25512		12.991666	-8.010871	-17.791760
25513		13.122397	-8.033099	-17.979963
25514		13.244249	-8.049155	-18.156141
25515		13.335066	-8.077678	-18.325083
25516		13.407410	-8.109419	-18.493036
25517		13.480677	-8.126582	-18.661625
25518		13.544845	-8.132335	-18.822176
25519		13.613638	-8.139870	-18.990886
25520		13.684440	-8.152194	-19.163589
25521		13.724665	-8.161534	-19.329699
25522		13.771323	-8.169664	-19.498904
25523		13.832494	-8.173660	-19.668688
25524		13.890872	-8.184055	-19.835643
25525		13.961594	-8.208482	-20.005685
25526		14.040900	-8.247463	-20.181188
25527		14.130412	-8.294081	-20.370312
25528		14.220954	-8.337680	-20.562681
25529		14.313093	-8.367248	-20.763670
25530		14.425917	-8.375614	-20.963069
25531		14.540632	-8.368357	-21.153351
25532		14.648654	-8.366009	-21.338936
25533		14.730351	-8.363844	-21.516184
25534		14.754428	-8.364412	-21.679960
25535		14.769938	-8.368041	-21.851893
25536		14.843829	-8.376705	-22.039234
25537		14.932013	-8.374536	-22.232835
25538		15.029851	-8.389111	-22.421956
25539		15.131781	-8.433393	-22.611430
25540		15.233031	-8.482096	-22.805108
25541		15.305698	-8.511346	-22.985802
25542		15.316732	-8.522243	-23.154585
25543		15.330833	-8.531381	-23.336674
25544		15.379671	-8.542505	-23.535609
25545		15.427367	-8.526355	-23.735155
25546		15.487655	-8.497236	-23.928496
25547		15.580844	-8.484090	-24.118848
25548		15.690779	-8.507822	-24.314086
25549		15.796996	-8.560664	-24.517542
25550		15.895657	-8.608766	-24.719220
25551		15.983900	-8.624083	-24.913494
25552		16.069245	-8.611651	-25.111083
25553		16.156530	-8.589374	-25.310814
25554		16.239929	-8.569632	-25.499904
25555		16.324983	-8.571304	-25.688420
25556		16.409860	-8.584821	-25.876203
25557		16.500083	-8.597814	-26.060512
25558		16.578944	-8.600232	-26.226705
25559		16.629665	-8.584252	-26.378552
25560		16.668632	-8.542791	-26.524470
25561		16.728598	-8.496107	-26.689197
25562		16.794364	-8.451969	-26.863705
25563		16.893874	-8.417754	-27.044591
25564		17.033177	-8.396236	-27.223549
25565		17.168692	-8.381126	-27.387798
25566		17.281205	-8.375453	-27.526428
25567		17.380151	-8.373676	-27.659529
25568		17.469647	-8.362369	-27.794634
25569		17.570064	-8.341196	-27.946723
25570		17.703130	-8.326774	-28.124711
25571		17.843731	-8.330922	-28.319700
25572		17.963304	-8.333434	-28.515343
25573		18.056301	-8.326120	-28.698332
25574		18.104295	-8.310176	-28.863064
25575		18.120609	-8.287432	-29.020083
25576		18.148723	-8.267576	-29.183856
25577		18.180102	-8.246944	-29.356122
25578		18.208923	-8.225326	-29.536534
25579		18.215826	-8.197091	-29.716576
25580		18.228064	-8.165417	-29.897609
25581		18.237272	-8.117509	-30.079522
25582		18.246738	-8.064457	-30.239694
25583		18.232425	-8.022286	-30.386470
25584		18.179539	-7.995747	-30.529165
25585		18.110084	-7.978212	-30.668036
25586		18.084372	-7.959680	-30.815554
25587		18.100484	-7.919229	-30.970850
25588		18.141353	-7.864567	-31.118602
25589		18.170031	-7.800023	-31.251042
25590		18.136339	-7.735738	-31.352320
25591		18.045577	-7.697377	-31.452109
25592		17.970070	-7.675267	-31.565234
25593		17.931091	-7.650218	-31.698419
25594		17.905450	-7.608019	-31.843944
25595		17.911422	-7.554489	-31.991662
25596		17.910265	-7.475104	-32.126308
25597		17.864572	-7.396040	-32.237111
25598		17.784941	-7.363607	-32.343943
25599		17.726142	-7.351234	-32.471864
25600		17.719802	-7.322924	-32.610772
25601		17.712061	-7.274279	-32.749661
25602		17.691941	-7.210808	-32.881867
25603		17.684459	-7.136886	-33.010933
25604		17.689390	-7.069352	-33.132858
25605		17.651616	-6.997859	-33.232567
25606		17.514865	-6.918763	-33.311066
25607		17.339670	-6.832486	-33.394446
25608		17.225233	-6.758227	-33.492036
25609		17.169017	-6.708174	-33.601368
25610		17.134358	-6.674689	-33.722055
25611		17.149206	-6.650773	-33.845011
25612		17.198105	-6.614017	-33.964676
25613		17.238259	-6.551852	-34.080349
25614		17.240858	-6.477516	-34.191118
25615		17.203726	-6.409582	-34.307552
25616		17.152954	-6.339906	-34.436722
25617		17.124293	-6.260692	-34.566459
25618		17.104814	-6.163332	-34.691506
25619		17.071706	-6.068561	-34.806646
25620		17.035377	-5.992363	-34.927185
25621		17.020323	-5.925971	-35.051874
25622		17.013985	-5.872553	-35.170291
25623		16.990555	-5.822222	-35.284462
25624		16.991320	-5.764174	-35.389422
25625		17.002959	-5.706567	-35.493841
25626		17.021000	-5.671144	-35.598638
25627		17.046731	-5.649715	-35.707906
25628		17.043733	-5.612100	-35.816391
25629		17.029515	-5.548138	-35.932395
25630		17.050796	-5.490085	-36.056582
25631		17.081509	-5.454178	-36.206029
25632		17.129552	-5.442938	-36.383857
25633		17.228858	-5.439760	-36.578323
25634		17.322197	-5.420808	-36.767280
25635		17.372069	-5.375034	-36.942286
25636		17.401591	-5.330103	-37.109451
25637		17.422954	-5.303368	-37.282802
25638		17.421849	-5.288217	-37.448889
25639		17.356335	-5.252851	-37.599478
25640		17.262559	-5.203336	-37.730540
25641		17.186444	-5.168168	-37.863658
25642		17.120324	-5.152171	-37.998023
25643		17.080528	-5.143478	-38.130258
25644		17.067565	-5.127011	-38.258184
25645		17.044488	-5.097421	-38.379438
25646		17.014277	-5.073052	-38.499617
25647		16.988038	-5.050795	-38.626660
25648		16.951260	-5.011936	-38.751810
25649		16.927679	-4.955299	-38.868259
25650		16.905700	-4.894317	-38.975657
25651		16.854773	-4.842872	-39.078520
25652		16.789745	-4.812703	-39.181502
25653		16.755203	-4.795232	-39.294380
25654		16.756040	-4.787228	-39.418821
25655		16.791339	-4.782592	-39.561051
25656		16.841208	-4.778915	-39.718258
25657		16.884483	-4.784392	-39.887806
25658		16.961143	-4.815059	-40.052550
25659		17.014131	-4.848605	-40.207768
25660		16.964691	-4.858263	-40.333657
25661		16.821528	-4.826624	-40.441194
25662		16.663088	-4.784192	-40.546422
25663		16.540028	-4.747634	-40.663244
25664		16.437348	-4.723816	-40.790825
25665		16.367035	-4.711110	-40.936174
25666		16.331927	-4.702598	-41.087572
25667		16.277520	-4.683705	-41.233680
25668		16.193568	-4.677837	-41.377009
25669		16.114000	-4.682666	-41.528758
25670		16.046087	-4.673915	-41.681728
25671		15.968169	-4.641424	-41.835857
25672		15.889433	-4.609105	-41.988212
25673		15.807520	-4.579040	-42.139857
25674		15.704488	-4.538260	-42.294969
25675		15.579262	-4.518645	-42.472617
25676		15.464464	-4.531186	-42.672360
25677		15.416093	-4.572880	-42.877222
25678		15.431162	-4.624680	-43.077886
25679		15.446116	-4.656107	-43.266286
25680		15.445620	-4.669528	-43.435164
25681		15.381348	-4.649530	-43.586833
25682		15.252379	-4.606929	-43.735062
25683		15.113485	-4.566376	-43.913702
25684		15.018087	-4.536642	-44.126549
25685		14.982336	-4.561814	-44.356891
25686		14.998645	-4.575578	-44.576629
25687		15.006790	-4.549169	-44.792121
25688		14.991668	-4.522069	-45.000406
25689		14.934544	-4.486323	-45.205591
25690		14.874679	-4.455322	-45.405601
25691		14.819279	-4.424538	-45.605116
25692		14.759484	-4.401062	-45.816369
25693		14.777051	-4.422210	-46.044090
25694		14.835873	-4.450844	-46.264148
25695		14.835674	-4.451047	-46.467609
25696		14.824712	-4.439409	-46.662191
25697		14.823059	-4.424936	-46.851527
25698		14.819963	-4.415649	-47.044888
25699		14.857402	-4.446525	-47.252044
25700		14.906625	-4.486188	-47.461633
25701		14.983291	-4.525928	-47.672856
25702		15.098605	-4.593463	-47.890162
25703		15.259657	-4.700386	-48.113656
25704		15.385231	-4.799654	-48.330342
25705		15.473793	-4.866180	-48.529312
25706		15.532891	-4.908123	-48.699368
25707		15.544939	-4.928337	-48.846850
25708		15.543318	-4.942135	-48.980789
25709		15.516381	-4.928542	-49.108117
25710		15.481884	-4.896691	-49.229072
25711		15.452095	-4.882919	-49.353965
25712		15.415565	-4.879182	-49.479867
25713		15.380319	-4.856416	-49.603619
25714		15.349151	-4.841657	-49.732432
25715		15.344711	-4.862043	-49.867904
25716		15.338850	-4.865255	-49.998409
25717		15.314245	-4.828522	-50.120818
25718		15.269256	-4.794016	-50.240545
25719		15.217320	-4.791334	-50.359339
25720		15.184217	-4.796137	-50.473386
25721		15.177146	-4.800512	-50.585768
25722		15.167121	-4.805341	-50.694175
25723		15.144111	-4.800926	-50.804184
25724		15.128821	-4.797080	-50.914272
25725		15.126760	-4.786867	-51.030783
25726		15.135476	-4.762685	-51.141226
25727		15.138697	-4.740101	-51.248441
25728		15.133778	-4.724933	-51.347066
25729		15.130185	-4.702640	-51.435518
25730		15.120723	-4.682536	-51.517347
25731		15.129654	-4.675843	-51.599250
25732		15.147606	-4.669160	-51.677243
25733		15.152874	-4.656088	-51.749547
25734		15.146002	-4.633898	-51.814883
25735		15.126072	-4.592454	-51.869154
25736		15.095980	-4.556519	-51.914825
25737		15.086528	-4.547677	-51.958933
25738		15.083187	-4.540485	-52.002608
25739		15.077955	-4.530373	-52.043885
25740		15.085122	-4.518698	-52.080022
25741		15.097987	-4.501220	-52.110163
25742		15.105456	-4.475019	-52.131304
25743		15.115422	-4.456830	-52.152399
25744		15.124268	-4.442565	-52.172516
25745		15.129367	-4.430632	-52.189116
25746		15.145956	-4.422561	-52.204564
25747		15.153768	-4.419605	-52.222653
25748		15.173883	-4.422057	-52.241592
25749		15.184048	-4.402054	-52.254252
25750		15.185443	-4.375447	-52.257506
25751		15.186002	-4.360570	-52.264605
25752		15.182785	-4.350340	-52.270135
25753		15.180663	-4.330227	-52.274896
25754		15.183272	-4.307147	-52.286203
25755		15.180185	-4.269675	-52.307103
25756		15.187676	-4.230294	-52.334238
25757		15.235561	-4.211637	-52.372323
25758		15.281179	-4.183572	-52.407463
25759		15.288292	-4.126537	-52.428378
25760		15.282174	-4.067932	-52.437300
25761		15.278625	-4.017927	-52.436865
25762		15.282894	-4.013803	-52.419630
25763		15.284350	-4.021792	-52.395340
25764		15.280264	-4.024396	-52.362543
25765		15.278636	-4.037221	-52.336318
25766		15.267516	-4.047806	-52.316389
25767		15.261625	-4.057167	-52.309484
25768		15.277503	-4.062903	-52.309630
25769		15.297501	-4.069344	-52.311360
25770		15.323684	-4.087466	-52.316636
25771		15.360868	-4.118848	-52.328928
25772		15.383483	-4.136247	-52.342691
25773		15.386563	-4.145995	-52.361621
25774		15.394988	-4.162897	-52.385027
25775		15.406038	-4.167471	-52.410005
25776		15.417878	-4.158335	-52.428538
25777		15.434928	-4.149057	-52.449774
25778		15.447646	-4.142892	-52.467999
25779		15.433588	-4.126451	-52.488582
25780		15.414560	-4.102260	-52.512052
25781		15.388476	-4.075665	-52.547267
25782		15.378911	-4.058959	-52.589417
25783		15.380197	-4.043466	-52.642164
25784		15.398278	-4.043906	-52.695180
25785		15.435316	-4.048130	-52.746939
25786		15.468968	-4.046877	-52.792836
25787		15.493658	-4.051117	-52.832990
25788		15.505614	-4.054974	-52.864964
25789		15.496169	-4.041428	-52.893868
25790		15.480245	-4.026720	-52.922268
25791		15.473036	-4.018408	-52.952331
25792		15.463857	-3.996598	-52.975396
25793		15.449951	-3.974334	-52.996711
25794		15.442425	-3.957541	-53.016718
25795		15.439132	-3.933155	-53.037047
25796		15.433715	-3.911603	-53.057573
25797		15.432692	-3.913872	-53.084517
25798		15.438892	-3.917499	-53.116747
25799		15.444078	-3.908469	-53.154239
25800		15.453626	-3.910796	-53.195050
25801		15.466577	-3.905351	-53.239838
25802		15.464470	-3.887561	-53.281700
25803		15.447756	-3.870244	-53.322550
25804		15.422744	-3.854118	-53.364444
25805		15.411869	-3.851972	-53.409046
25806		15.399416	-3.843919	-53.446822
25807		15.375501	-3.818436	-53.475738
25808		15.339421	-3.788537	-53.504296
25809		15.295870	-3.762459	-53.536206
25810		15.258550	-3.744456	-53.573016
25811		15.226377	-3.738571	-53.612321
25812		15.206620	-3.727694	-53.651228
25813		15.209443	-3.715543	-53.691566
25814		15.215002	-3.708594	-53.729305
25815		15.211868	-3.697460	-53.770059
25816		15.203481	-3.681262	-53.805470
25817		15.189737	-3.671812	-53.840212
25818		15.189127	-3.680618	-53.870397
25819		15.194294	-3.686985	-53.894042
25820		15.194962	-3.687700	-53.910253
25821		15.186187	-3.688463	-53.928817
25822		15.170618	-3.681762	-53.954281
25823		15.163288	-3.677670	-53.986826
25824		15.165112	-3.670946	-54.017402
25825		15.158570	-3.665426	-54.043179
25826		15.159683	-3.664267	-54.066253
25827		15.154056	-3.657890	-54.090957
25828		15.142955	-3.647890	-54.108087
25829		15.141493	-3.642066	-54.126434
25830		15.144636	-3.644607	-54.146040
25831		15.145149	-3.634974	-54.164759
25832		15.143868	-3.609066	-54.174619
25833		15.138271	-3.593950	-54.188552
25834		15.133582	-3.580527	-54.199648
25835		15.136340	-3.573542	-54.209815
25836		15.154861	-3.577273	-54.215171
25837		15.161574	-3.577286	-54.215157
25838		15.162276	-3.571193	-54.208553
25839		15.152367	-3.547948	-54.202513
25840		15.145698	-3.529606	-54.198526
25841		15.152932	-3.535799	-54.200913
25842		15.162337	-3.549537	-54.207527
25843		15.174945	-3.556618	-54.215983
25844		15.185988	-3.563634	-54.220753
25845		15.194902	-3.567685	-54.217878
25846		15.200221	-3.578057	-54.204900
25847		15.198728	-3.582651	-54.184883
25848		15.182683	-3.575939	-54.159194
25849		15.167665	-3.577755	-54.141688
25850		15.161692	-3.587865	-54.126725
25851		15.151724	-3.584749	-54.117962
25852		15.148868	-3.583140	-54.110637
25853		15.143303	-3.580450	-54.105939
25854		15.131597	-3.575705	-54.100771
25855		15.126100	-3.579315	-54.098477
25856		15.120789	-3.582912	-54.087279
25857		15.101746	-3.582516	-54.070646
25858		15.093375	-3.585505	-54.060292
25859		15.081442	-3.580290	-54.047639
25860		15.065008	-3.565719	-54.037406
25861		15.057648	-3.556873	-54.032864
25862		15.047125	-3.544314	-54.028542
25863		15.035977	-3.519445	-54.028475
25864		15.048027	-3.501844	-54.023834
25865		15.068694	-3.484472	-54.011981
25866		15.070177	-3.459413	-53.982089
25867		15.061430	-3.416611	-53.942755
25868		15.044935	-3.362258	-53.893110
25869		15.023191	-3.321545	-53.847272
25870		15.002792	-3.293587	-53.805601
25871		14.981331	-3.261718	-53.764560
25872		14.966879	-3.241005	-53.719542
25873		14.967860	-3.226610	-53.676783
25874		14.960962	-3.215868	-53.626302
25875		14.947281	-3.203230	-53.575290
25876		14.940112	-3.199952	-53.519673
25877		14.937753	-3.200191	-53.462646
25878		14.937640	-3.207279	-53.399480
25879		14.929203	-3.212277	-53.334508
25880		14.912592	-3.207000	-53.264659
25881		14.896398	-3.195322	-53.198754
25882		14.882104	-3.188501	-53.130873
25883		14.877204	-3.185165	-53.067650
25884		14.888263	-3.196217	-53.003264
25885		14.908627	-3.207954	-52.937285
25886		14.944821	-3.222271	-52.869084
25887		14.999140	-3.248313	-52.806536
25888		15.079337	-3.292059	-52.742107
25889		15.182063	-3.334941	-52.677731
25890		15.270829	-3.405037	-52.617327
25891		15.406931	-3.512066	-52.561876
25892		15.617799	-3.603880	-52.486416
25893		15.785289	-3.635338	-52.378198
25894		15.876412	-3.650079	-52.244520
25895		15.915987	-3.658772	-52.103276
25896		15.920331	-3.659908	-51.954089
25897		15.922997	-3.644789	-51.807140
25898		15.946276	-3.627829	-51.661641
25899		15.992354	-3.605652	-51.525356
25900		16.053509	-3.579461	-51.390782
25901		16.144706	-3.545112	-51.250598
25902		16.254580	-3.496508	-51.091668
25903		16.336473	-3.439455	-50.916349
25904		16.390756	-3.386837	-50.726757
25905		16.439192	-3.325316	-50.535633
25906		16.475402	-3.272202	-50.349304
25907		16.506725	-3.236349	-50.180208
25908		16.590752	-3.221556	-50.013124
25909		16.691699	-3.198469	-49.836495
25910		16.768328	-3.166076	-49.645731
25911		16.825988	-3.126593	-49.445851
25912		16.882122	-3.079682	-49.241990
25913		16.932934	-3.027952	-49.041724
25914		16.992585	-2.997864	-48.854144
25915		17.077042	-2.992818	-48.684011
25916		17.197902	-3.010294	-48.515213
25917		17.339280	-3.027148	-48.349408
25918		17.489661	-3.065405	-48.184210
25919		17.629976	-3.106371	-48.027284
25920		17.761762	-3.130244	-47.848917
25921		17.842561	-3.113381	-47.639799
25922		17.863032	-3.066283	-47.395555
25923		17.835310	-3.007802	-47.138215
25924		17.813723	-2.978230	-46.885430
25925		17.827194	-2.992928	-46.657890
25926		17.895900	-3.066980	-46.454512
25927		18.024266	-3.158636	-46.281033
25928		18.207841	-3.206290	-46.092643
25929		18.394341	-3.192549	-45.857898
25930		18.556498	-3.153499	-45.582503
25931		18.665667	-3.118947	-45.293627
25932		18.735056	-3.111456	-45.001886
25933		18.800179	-3.124248	-44.716168
25934		18.866948	-3.132037	-44.433884
25935		18.919812	-3.110688	-44.155512
25936		18.964441	-3.072992	-43.872588
25937		19.017174	-3.029573	-43.588104
25938		19.061547	-3.011459	-43.286639
25939		19.098657	-3.008102	-42.986711
25940		19.131591	-3.008550	-42.683168
25941		19.168866	-2.994885	-42.386666
25942		19.234569	-2.987349	-42.097966
25943		19.318686	-2.980633	-41.824429
25944		19.418475	-2.965929	-41.558922
25945		19.514462	-2.944746	-41.280978
25946		19.601421	-2.926825	-40.992123
25947		19.670603	-2.905780	-40.700265
25948		19.732109	-2.891969	-40.408253
25949		19.804946	-2.904411	-40.133599
25950		19.877056	-2.920061	-39.873612
25951		19.943081	-2.935808	-39.633754
25952		19.996223	-2.940572	-39.398534
25953		20.028597	-2.935253	-39.152219
25954		20.039645	-2.919637	-38.892213
25955		20.018965	-2.893129	-38.619714
25956		19.984818	-2.857729	-38.343032
25957		19.944073	-2.797410	-38.070268
25958		19.924279	-2.734752	-37.800262
25959		19.939461	-2.696704	-37.550977
25960		19.965070	-2.686572	-37.324822
25961		20.007080	-2.683155	-37.111235
25962		20.068041	-2.667216	-36.889875
25963		20.119121	-2.629579	-36.655176
25964		20.162578	-2.585199	-36.407402
25965		20.196476	-2.556916	-36.160719
25966		20.215057	-2.561107	-35.919533
25967		20.208405	-2.576073	-35.690403
25968		20.187368	-2.577727	-35.464626
25969		20.192801	-2.561427	-35.234171
25970		20.184868	-2.533042	-34.989759
25971		20.149789	-2.495745	-34.727717
25972		20.092373	-2.456440	-34.459248
25973		20.034516	-2.435027	-34.203244
25974		19.977182	-2.419585	-33.961553
25975		19.933353	-2.393042	-33.728094
25976		19.916984	-2.347280	-33.497521
25977		19.910609	-2.301055	-33.275323
25978		19.916276	-2.272143	-33.054916
25979		19.918753	-2.260426	-32.828013
25980		19.921869	-2.241594	-32.588654
25981		19.926727	-2.208708	-32.345052
25982		19.921129	-2.175302	-32.098434
25983		19.896191	-2.151962	-31.853077
25984		19.854781	-2.132725	-31.614166
25985		19.797629	-2.116794	-31.382169
25986		19.727871	-2.094244	-31.140724
25987		19.659416	-2.089789	-30.906337
25988		19.586227	-2.109738	-30.683682
25989		19.481266	-2.112017	-30.453598
25990		19.357018	-2.079884	-30.210227
25991		19.215431	-2.012708	-29.954546
25992		19.045695	-1.922357	-29.690440
25993		18.853791	-1.812697	-29.414608
25994		18.663371	-1.709495	-29.140624
25995		18.492993	-1.636720	-28.888789
25996		18.334731	-1.604847	-28.646225
25997		18.176760	-1.589101	-28.390226
25998		17.990242	-1.555100	-28.108637
25999		17.780928	-1.498463	-27.800483
26000		17.567700	-1.436227	-27.487225
26001		17.401962	-1.392889	-27.203667
26002		17.278980	-1.382874	-26.945827
26003		17.171828	-1.392321	-26.690168
26004		17.069352	-1.396009	-26.427658
26005		16.969681	-1.373591	-26.150166
26006		16.873593	-1.331141	-25.862093
26007		16.788317	-1.287071	-25.567654
26008		16.712824	-1.267848	-25.285286
26009		16.659188	-1.299446	-25.026926
26010		16.605268	-1.356399	-24.759303
26011		16.530224	-1.391056	-24.466735
26012		16.426012	-1.372691	-24.157812
26013		16.289402	-1.332116	-23.850009
26014		16.108411	-1.276813	-23.551294
26015		15.891535	-1.228526	-23.272926
26016		15.685959	-1.215164	-23.020422
26017		15.496166	-1.221433	-22.781993
26018		15.311926	-1.215271	-22.528668
26019		15.148752	-1.194789	-22.257514
26020		14.980775	-1.175196	-21.973207
26021		14.794380	-1.160626	-21.685385
26022		14.609876	-1.145180	-21.407333
26023		14.444115	-1.120253	-21.145578
26024		14.297478	-1.083042	-20.894831
26025		14.174299	-1.057931	-20.636698
26026		14.048569	-1.049867	-20.363458
26027		13.881711	-1.037897	-20.073002
26028		13.686145	-1.022272	-19.778845
26029		13.496211	-0.999437	-19.493285
26030		13.321346	-0.982032	-19.222031
26031		13.154312	-0.968837	-18.958742
26032		13.008999	-0.961804	-18.699824
26033		12.862222	-0.946962	-18.433534
26034		12.695397	-0.910254	-18.157528
26035		12.507851	-0.879368	-17.892254
26036		12.321399	-0.860313	-17.640403
26037		12.146326	-0.825634	-17.395565
26038		11.988224	-0.801411	-17.164287
26039		11.832721	-0.797191	-16.933958
26040		11.683855	-0.803540	-16.687984
26041		11.558224	-0.819670	-16.426022
26042		11.437937	-0.837710	-16.156934
26043		11.338908	-0.833063	-15.890334
26044		11.275062	-0.799509	-15.626424
26045		11.206751	-0.760453	-15.376332
26046		11.087417	-0.739746	-15.148642
26047		10.942817	-0.721518	-14.947368
26048		10.831271	-0.697306	-14.746408
26049		10.732295	-0.680625	-14.542126
26050		10.636931	-0.683176	-14.319970
26051		10.560807	-0.686687	-14.081783
26052		10.499726	-0.686765	-13.833321
26053		10.437809	-0.690886	-13.592293
26054		10.363862	-0.685631	-13.366756
26055		10.280631	-0.658606	-13.164354
26056		10.203244	-0.606831	-12.973404
26057		10.146449	-0.550805	-12.783805
26058		10.111446	-0.510263	-12.580381
26059		10.095739	-0.500033	-12.375280
26060		10.086362	-0.514526	-12.174753
26061		10.063852	-0.526169	-11.997977
26062		10.005395	-0.512697	-11.845352
26063		9.939724	-0.464202	-11.705263
26064		9.900046	-0.414714	-11.562117
26065		9.884617	-0.403071	-11.408918
26066		9.865594	-0.424520	-11.253282
26067		9.862448	-0.460659	-11.092295
26068		9.864782	-0.501306	-10.918270
26069		9.861003	-0.539651	-10.744310
26070		9.876165	-0.563584	-10.560452
26071		9.871392	-0.572679	-10.378602
26072		9.825983	-0.582829	-10.203569
26073		9.768508	-0.593579	-10.029698
26074		9.712110	-0.617254	-9.860648
26075		9.646182	-0.647085	-9.701573
26076		9.573040	-0.675548	-9.553322
26077		9.513035	-0.694455	-9.417546
26078		9.436096	-0.723384	-9.291451
26079		9.340797	-0.768046	-9.179747
26080		9.251884	-0.816685	-9.068085
26081		9.152537	-0.858937	-8.947635
26082		9.051746	-0.894901	-8.818351
26083		8.955561	-0.938053	-8.681431
26084		8.867243	-0.989194	-8.540693
26085		8.779752	-1.030194	-8.411743
26086		8.725025	-1.060221	-8.288758
26087		8.697432	-1.103382	-8.163237
26088		8.655417	-1.196055	-8.033545
26089		8.578784	-1.344925	-7.892677
26090		8.470617	-1.508650	-7.741653
26091		8.349825	-1.669692	-7.610347
26092		8.219384	-1.808433	-7.503271
26093		8.061590	-1.892532	-7.427005
26094		7.898599	-1.919259	-7.382211
26095		7.758314	-1.881817	-7.352418
26096		7.617756	-1.793876	-7.310452
26097		7.445660	-1.683279	-7.253767
26098		7.238915	-1.569494	-7.179654
26099		7.006827	-1.482217	-7.094296
26100		6.753623	-1.410814	-7.008003
26101		6.524345	-1.334831	-6.926078
26102		6.365881	-1.253525	-6.849572
26103		6.271525	-1.194564	-6.790068
26104		6.214756	-1.169873	-6.754443
26105		6.196751	-1.168439	-6.745660
26106		6.206551	-1.184946	-6.759245
26107		6.218841	-1.199101	-6.791518
26108		6.240631	-1.197231	-6.827015
26109		6.270856	-1.187516	-6.863850
26110		6.302967	-1.187264	-6.896795
26111		6.323114	-1.185888	-6.926626
26112		6.325492	-1.179631	-6.947567
26113		6.296894	-1.165332	-6.970891
26114		6.249858	-1.144276	-6.996445
26115		6.205062	-1.111144	-7.018071
26116		6.179942	-1.081406	-7.029170
26117		6.162564	-1.067241	-7.033952
26118		6.144743	-1.073543	-7.032191
26119		6.125422	-1.096440	-7.031906
26120		6.107187	-1.120763	-7.022481
26121		6.083710	-1.147366	-7.019086
26122		6.061902	-1.161236	-7.020985
26123		6.056957	-1.165100	-7.028064
26124		6.062009	-1.178479	-7.044347
26125		6.077405	-1.195913	-7.068320
26126		6.102799	-1.212418	-7.098899
26127		6.124553	-1.229691	-7.131602
26128		6.141587	-1.261578	-7.162304
26129		6.150696	-1.294842	-7.198173
26130		6.164648	-1.318022	-7.230953
26131		6.184120	-1.342937	-7.259254
26132		6.191921	-1.376518	-7.285707
26133		6.186670	-1.414372	-7.315240
26134		6.178804	-1.446739	-7.344262
26135		6.173152	-1.479376	-7.373352
26136		6.170320	-1.512611	-7.403320
26137		6.161254	-1.534373	-7.434939
26138		6.147663	-1.556012	-7.473517
26139		6.136221	-1.582076	-7.516263
26140		6.142749	-1.615570	-7.558572
26141		6.164625	-1.657202	-7.597998
26142		6.180364	-1.700889	-7.634165
26143		6.198385	-1.742102	-7.674142
26144		6.208623	-1.782818	-7.713465
26145		6.204028	-1.814921	-7.754684
26146		6.202615	-1.836084	-7.799854
26147		6.206267	-1.853221	-7.845186
26148		6.212232	-1.865309	-7.890278
26149		6.227673	-1.883725	-7.935231
26150		6.240737	-1.911178	-7.977380
26151		6.251524	-1.939079	-8.020172
26152		6.257191	-1.964716	-8.060973
26153		6.242301	-1.986270	-8.107269
26154		6.227162	-2.003617	-8.157721
26155		6.244062	-2.016702	-8.217700
26156		6.277466	-2.040277	-8.277265
26157		6.300107	-2.079024	-8.339900
26158		6.317248	-2.123013	-8.400157
26159		6.338866	-2.164219	-8.461822
26160		6.360742	-2.202846	-8.519510
26161		6.369387	-2.225954	-8.587644
26162		6.378183	-2.242935	-8.658906
26163		6.400315	-2.259999	-8.728739
26164		6.436627	-2.288225	-8.788789
26165		6.465958	-2.330985	-8.847915
26166		6.500435	-2.376553	-8.905957
26167		6.530040	-2.410521	-8.965558
26168		6.555286	-2.436467	-9.029947
26169		6.571202	-2.453054	-9.107092
26170		6.587091	-2.454971	-9.193955
26171		6.626481	-2.447636	-9.286851
26172		6.685070	-2.451046	-9.372675
26173		6.741703	-2.478486	-9.455094
26174		6.798448	-2.519636	-9.532979
26175		6.851678	-2.564951	-9.611236
26176		6.891207	-2.609338	-9.687325
26177		6.915569	-2.653238	-9.766817
26178		6.932538	-2.692360	-9.846422
26179		6.956426	-2.726567	-9.920633
26180		6.980926	-2.767557	-9.985544
26181		6.992392	-2.823663	-10.048704
26182		7.001938	-2.879893	-10.109686
26183		7.008650	-2.925438	-10.165284
26184		7.011064	-2.966489	-10.211714
26185		7.022620	-3.002554	-10.262570
26186		7.048522	-3.035025	-10.310552
26187		7.086852	-3.068267	-10.374586
26188		7.141395	-3.106374	-10.443516
26189		7.193974	-3.148286	-10.518286
26190		7.230765	-3.191543	-10.597132
26191		7.244864	-3.222019	-10.683858
26192		7.258001	-3.241898	-10.772018
26193		7.302122	-3.266050	-10.865025
26194		7.345257	-3.305061	-10.953010
26195		7.370937	-3.364720	-11.044160
26196		7.386341	-3.423667	-11.137374
26197		7.405301	-3.477747	-11.230914
26198		7.440559	-3.529054	-11.320232
26199		7.477823	-3.578891	-11.414303
26200		7.502388	-3.628203	-11.513017
26201		7.533550	-3.664402	-11.615007
26202		7.589777	-3.693910	-11.713842
26203		7.648345	-3.728459	-11.812566
26204		7.695496	-3.763718	-11.914795
26205		7.747750	-3.785182	-12.022764
26206		7.778685	-3.791763	-12.142444
26207		7.731435	-3.781539	-12.278934
26208		7.702573	-3.744090	-12.413748
26209		7.760823	-3.702406	-12.549567
26210		7.851948	-3.697798	-12.681938
26211		7.944876	-3.732288	-12.807289
26212		8.040014	-3.780705	-12.920646
26213		8.114808	-3.832745	-13.031333
26214		8.153716	-3.883130	-13.153399
26215		8.181852	-3.918165	-13.296593
26216		8.214282	-3.934154	-13.450573
26217		8.266148	-3.937204	-13.615723
26218		8.328580	-3.951005	-13.783088
26219		8.396389	-3.981528	-13.948974
26220		8.462409	-4.024154	-14.110685
26221		8.527049	-4.073835	-14.264366
26222		8.579688	-4.123130	-14.410538
26223		8.622321	-4.156059	-14.552047
26224		8.631719	-4.173198	-14.697841
26225		8.606050	-4.172316	-14.862749
26226		8.577264	-4.165371	-15.046873
26227		8.578313	-4.154076	-15.235384
26228		8.606806	-4.155997	-15.429005
26229		8.655097	-4.184687	-15.623858
26230		8.716103	-4.229078	-15.815546
26231		8.768346	-4.281680	-16.008046
26232		8.819599	-4.336344	-16.205420
26233		8.894210	-4.379882	-16.414193
26234		8.978307	-4.413275	-16.633493
26235		9.054704	-4.439055	-16.866358
26236		9.134516	-4.454194	-17.096222
26237		9.242417	-4.471657	-17.320773
26238		9.369426	-4.506306	-17.540927
26239		9.498945	-4.567492	-17.761755
26240		9.614251	-4.639567	-17.978088
26241		9.712611	-4.700803	-18.189930
26242		9.789134	-4.738724	-18.395056
26243		9.855539	-4.754354	-18.603833
26244		9.905218	-4.767943	-18.817860
26245		9.949879	-4.785573	-19.035626
26246		9.996169	-4.809877	-19.245969
26247		10.054531	-4.849878	-19.451126
26248		10.132141	-4.899174	-19.648256
26249		10.213935	-4.949844	-19.838530
26250		10.296815	-5.001318	-20.022586
26251		10.377104	-5.046921	-20.213006
26252		10.453082	-5.080985	-20.408735
26253		10.524892	-5.098523	-20.605291
26254		10.610433	-5.107722	-20.800937
26255		10.714774	-5.121478	-20.997762
26256		10.823113	-5.136009	-21.186236
26257		10.948021	-5.142529	-21.365527
26258		11.072257	-5.144938	-21.531360
26259		11.165419	-5.162641	-21.686500
26260		11.206132	-5.197846	-21.836909
26261		11.224934	-5.238855	-21.997228
26262		11.265524	-5.272459	-22.169214
26263		11.328357	-5.293727	-22.356534
26264		11.396463	-5.315136	-22.545021
26265		11.476101	-5.344894	-22.730062
26266		11.562031	-5.389333	-22.910474
26267		11.626678	-5.436238	-23.092325
26268		11.683069	-5.478737	-23.280960
26269		11.756164	-5.514534	-23.487673
26270		11.843933	-5.540455	-23.704273
26271		11.939469	-5.558041	-23.925894
26272		12.028226	-5.576343	-24.143027
26273		12.095932	-5.599206	-24.360088
26274		12.137393	-5.636640	-24.565508
26275		12.171887	-5.684926	-24.772635
26276		12.235485	-5.731411	-24.994876
26277		12.310272	-5.754391	-25.218026
26278		12.394764	-5.763593	-25.436513
26279		12.504812	-5.779240	-25.650424
26280		12.612727	-5.819291	-25.856161
26281		12.707135	-5.874519	-26.060379
26282		12.799457	-5.921163	-26.279434
26283		12.900418	-5.911913	-26.516808
26284		13.015502	-5.833614	-26.757242
26285		13.170440	-5.738475	-26.995952
26286		13.331558	-5.685086	-27.227139
26287		13.462376	-5.680012	-27.446104
26288		13.557058	-5.704469	-27.648135
26289		13.627653	-5.724843	-27.838222
26290		13.684226	-5.738820	-28.019503
26291		13.725333	-5.743617	-28.208164
26292		13.777883	-5.739315	-28.415838
26293		13.844559	-5.739617	-28.646932
26294		13.896220	-5.749026	-28.888439
26295		13.958203	-5.769119	-29.139677
26296		14.054679	-5.819279	-29.391510
26297		14.129852	-5.893903	-29.627715
26298		14.148110	-5.975394	-29.846531
26299		14.141808	-6.038102	-30.071126
26300		14.150975	-6.071238	-30.303116
26301		14.188225	-6.075209	-30.540181
26302		14.250609	-6.069722	-30.776307
26303		14.308982	-6.073541	-31.016017
26304		14.360758	-6.075115	-31.259019
26305		14.385215	-6.073582	-31.505091
26306		14.393384	-6.075481	-31.741224
26307		14.392786	-6.079576	-31.975229
26308		14.390774	-6.081307	-32.214873
26309		14.421737	-6.074777	-32.477121
26310		14.488326	-6.064178	-32.754153
26311		14.550272	-6.053595	-33.036498
26312		14.595602	-6.045472	-33.309333
26313		14.617352	-6.036668	-33.564537
26314		14.599773	-6.013600	-33.802055
26315		14.556884	-6.000181	-34.039074
26316		14.499376	-5.981019	-34.294807
26317		14.429009	-5.926635	-34.574400
26318		14.379297	-5.844343	-34.876646
26319		14.367219	-5.754019	-35.195740
26320		14.387454	-5.695959	-35.506067
26321		14.383592	-5.673037	-35.792962
26322		14.331616	-5.664595	-36.059914
26323		14.251719	-5.642938	-36.335222
26324		14.200666	-5.599073	-36.625187
26325		14.167407	-5.528979	-36.927852
26326		14.115590	-5.445431	-37.240578
26327		14.066278	-5.359984	-37.558507
26328		14.005980	-5.277481	-37.866736
26329		13.964111	-5.216194	-38.168691
26330		13.974923	-5.169284	-38.483129
26331		14.077123	-5.118946	-38.809665
26332		14.253638	-5.075409	-39.143201
26333		14.454264	-5.045583	-39.478550
26334		14.670078	-5.023712	-39.808675
26335		14.845202	-5.001384	-40.109758
26336		14.884653	-4.971659	-40.359628
26337		14.820057	-4.939772	-40.596853
26338		14.756589	-4.899690	-40.849575
26339		14.731935	-4.838091	-41.130213
26340		14.740520	-4.769261	-41.432893
26341		14.768025	-4.703634	-41.752590
26342		14.785680	-4.628216	-42.063102
26343		14.740451	-4.537677	-42.341220
26344		14.611570	-4.429780	-42.590051
26345		14.437064	-4.318290	-42.819348
26346		14.267063	-4.197164	-43.036735
26347		14.140205	-4.100496	-43.253993
26348		14.056668	-4.021144	-43.465574
26349		13.970778	-3.926180	-43.674021
26350		13.886674	-3.826644	-43.876111
26351		13.765039	-3.741964	-44.065359
26352		13.643688	-3.703718	-44.271324
26353		13.647128	-3.718571	-44.507977
26354		13.742857	-3.734919	-44.760585
26355		13.867834	-3.737705	-45.021441
26356		14.018750	-3.715705	-45.266359
26357		14.166461	-3.678331	-45.493927
26358		14.256113	-3.639848	-45.690127
26359		14.277433	-3.606618	-45.863813
26360		14.308563	-3.583975	-46.038019
26361		14.385952	-3.567168	-46.219362
26362		14.471630	-3.545857	-46.403007
26363		14.574652	-3.524309	-46.586198
26364		14.706096	-3.500269	-46.768671
26365		14.821092	-3.467963	-46.936218
26366		14.869021	-3.434242	-47.090053
26367		14.883649	-3.404177	-47.240397
26368		14.891594	-3.372467	-47.392770
26369		14.918551	-3.369086	-47.559911
26370		14.982219	-3.360836	-47.738004
26371		15.069357	-3.349553	-47.916271
26372		15.164131	-3.344954	-48.080206
26373		15.235175	-3.332685	-48.227916
26374		15.243396	-3.300235	-48.358886
26375		15.222640	-3.272080	-48.493122
26376		15.220299	-3.257777	-48.637831
26377		15.260354	-3.287421	-48.794651
26378		15.346439	-3.362752	-48.948127
26379		15.470550	-3.444595	-49.077171
26380		15.573811	-3.472527	-49.167267
26381		15.608811	-3.434544	-49.208647
26382		15.464490	-3.330541	-49.200190
26383		15.197407	-3.185928	-49.188251
26384		14.972215	-3.063465	-49.214029
26385		14.824416	-3.003922	-49.277958
26386		14.764368	-2.992581	-49.370845
26387		14.791118	-3.025256	-49.489459
26388		14.847374	-3.077013	-49.635528
26389		14.929765	-3.161792	-49.801553
26390		15.020832	-3.257328	-49.968267
26391		15.033033	-3.304543	-50.117759
26392		14.924351	-3.270681	-50.260287
26393		14.800735	-3.209577	-50.426768
26394		14.720013	-3.162857	-50.619581
26395		14.655246	-3.118379	-50.829358
26396		14.606582	-3.083534	-51.041608
26397		14.591630	-3.070994	-51.258681
26398		14.590905	-3.066101	-51.469855
26399		14.592636	-3.054937	-51.676194
26400		14.558985	-3.031728	-51.876963
26401		14.478367	-2.996495	-52.071615
26402		14.393371	-2.950763	-52.268719
26403		14.333300	-2.926194	-52.464354
26404		14.342735	-2.928365	-52.661344
26405		14.380216	-2.936267	-52.854743
26406		14.413460	-2.956103	-53.040365
26407		14.471039	-2.999674	-53.227204
26408		14.539662	-3.034772	-53.410110
26409		14.600349	-3.066314	-53.593704
26410		14.660571	-3.095123	-53.756972
26411		14.659843	-3.082674	-53.898752
26412		14.608402	-3.054257	-54.023038
26413		14.585532	-3.039583	-54.141685
26414		14.566713	-3.039251	-54.259046
26415		14.548524	-3.034022	-54.382823
26416		14.527535	-3.015951	-54.499846
26417		14.471428	-2.989149	-54.630379
26418		14.400981	-3.002664	-54.775023
26419		14.405666	-3.079390	-54.952230
26420		14.444816	-3.181041	-55.134820
26421		14.523031	-3.274272	-55.310379
26422		14.603931	-3.330831	-55.471556
26423		14.660647	-3.380696	-55.619005
26424		14.701787	-3.431972	-55.758487
26425		14.726153	-3.486942	-55.892226
26426		14.777829	-3.560379	-56.017531
26427		14.829768	-3.605482	-56.135431
26428		14.860216	-3.608178	-56.232373
26429		14.859790	-3.594382	-56.316134
26430		14.847054	-3.594568	-56.390871
26431		14.816865	-3.591310	-56.452266
26432		14.763233	-3.568257	-56.497768
26433		14.726034	-3.558379	-56.547775
26434		14.718663	-3.573027	-56.599445
26435		14.695189	-3.570316	-56.649660
26436		14.672611	-3.553484	-56.700724
26437		14.653527	-3.533717	-56.757344
26438		14.625516	-3.521294	-56.820516
26439		14.621667	-3.548789	-56.893013
26440		14.654862	-3.587864	-56.962068
26441		14.696184	-3.607228	-57.021234
26442		14.716694	-3.611568	-57.069889
26443		14.718776	-3.617965	-57.119853
26444		14.704816	-3.619784	-57.171030
26445		14.700693	-3.625794	-57.232015
26446		14.742146	-3.662347	-57.311249
26447		14.835068	-3.733670	-57.410192
26448		14.944623	-3.802694	-57.508448
26449		15.048019	-3.841261	-57.598203
26450		15.117754	-3.860777	-57.673649
26451		15.170751	-3.877518	-57.744810
26452		15.195624	-3.880566	-57.810630
26453		15.177769	-3.874739	-57.886617
26454		15.148439	-3.874874	-57.971773
26455		15.143917	-3.877271	-58.071703
26456		15.161406	-3.888411	-58.169555
26457		15.210934	-3.904257	-58.273636
26458		15.257939	-3.893359	-58.374205
26459		15.271995	-3.874668	-58.466420
26460		15.258140	-3.872234	-58.552642
26461		15.229035	-3.869801	-58.632223
26462		15.192262	-3.860393	-58.701441
26463		15.186550	-3.862788	-58.767626
26464		15.203824	-3.869245	-58.828599
26465		15.218510	-3.867064	-58.889659
26466		15.248507	-3.869222	-58.950715
26467		15.256294	-3.868751	-59.013615
26468		15.266785	-3.884175	-59.073580
26469		15.270063	-3.892904	-59.136601
26470		15.271890	-3.888865	-59.202377
26471		15.299018	-3.908348	-59.275053
26472		15.338605	-3.934967	-59.342164
26473		15.374469	-3.935343	-59.387559
26474		15.387445	-3.917555	-59.417446
26475		15.383500	-3.904614	-59.448807
26476		15.353855	-3.896522	-59.477587
26477		15.332678	-3.890050	-59.506596
26478		15.325619	-3.886116	-59.534597
26479		15.350168	-3.894114	-59.570462
26480		15.399831	-3.897588	-59.604714
26481		15.428204	-3.896456	-59.626070
26482		15.442504	-3.890157	-59.642924
26483		15.443575	-3.869043	-59.659377
26484		15.433344	-3.835911	-59.674599
26485		15.418973	-3.806175	-59.692251
26486		15.414665	-3.797038	-59.708434
26487		15.410337	-3.772320	-59.719190
26488		15.397937	-3.753786	-59.734708
26489		15.377894	-3.750395	-59.760800
26490		15.364898	-3.743287	-59.785071
26491		15.348726	-3.702461	-59.803442
26492		15.327730	-3.666610	-59.816094
26493		15.309562	-3.648059	-59.830903
26494		15.304211	-3.637662	-59.842579
26495		15.295118	-3.622792	-59.855505
26496		15.282543	-3.599548	-59.870406
26497		15.272026	-3.574498	-59.888582
26498		15.250532	-3.536923	-59.897568
26499		15.235810	-3.504565	-59.909692
26500		15.216030	-3.480919	-59.924860
26501		15.190905	-3.461739	-59.945852
26502		15.165703	-3.447768	-59.969258
26503		15.148175	-3.444444	-59.988362
26504		15.119843	-3.420382	-60.000998
26505		15.089803	-3.399185	-60.011999
26506		15.076254	-3.397840	-60.021196
26507		15.054099	-3.390218	-60.027038
26508		15.037276	-3.371856	-60.023152
26509		15.030585	-3.358561	-60.022613
26510		15.028382	-3.356460	-60.019379
26511		15.031828	-3.353323	-60.015646
26512		15.029749	-3.347429	-60.012963
26513		15.037334	-3.346748	-60.016736
26514		15.035189	-3.345200	-60.018638
26515		15.024791	-3.334514	-60.014841
26516		15.017192	-3.316328	-60.011727
26517		15.011751	-3.310751	-60.011531
26518		15.017346	-3.308707	-60.007547
26519		15.036645	-3.298661	-59.996992
26520		15.042992	-3.283134	-59.980052
26521		15.021639	-3.248220	-59.962847
26522		14.982343	-3.192622	-59.940617
26523		14.942447	-3.136942	-59.930362
26524		14.917755	-3.097261	-59.931618
26525		14.898370	-3.077578	-59.942493
26526		14.893948	-3.076292	-59.953789
26527		14.907398	-3.081416	-59.960392
26528		14.914647	-3.070117	-59.963816
26529		14.913896	-3.055690	-59.969977
26530		14.918096	-3.056733	-59.977702
26531		14.923071	-3.067093	-59.991259
26532		14.937516	-3.084377	-60.002803
26533		14.956872	-3.092887	-60.010569
26534		14.959206	-3.083148	-60.006519
26535		14.942530	-3.066015	-59.995744
26536		14.910813	-3.055107	-59.986707
26537		14.888824	-3.040253	-59.980002
26538		14.883716	-3.029198	-59.975019
26539		14.880589	-3.029078	-59.969059
26540		14.883450	-3.033105	-59.959249
26541		14.881341	-3.031279	-59.952330
26542		14.870160	-3.031479	-59.946146
26543		14.856648	-3.023369	-59.943856
26544		14.849578	-3.019305	-59.941496
26545		14.842150	-3.013780	-59.940359
26546		14.833133	-3.007754	-59.934084
26547		14.818733	-3.002186	-59.933980
26548		14.798828	-3.002597	-59.940770
26549		14.775534	-2.986614	-59.950224
26550		14.735957	-2.955354	-59.957929
26551		14.699130	-2.925775	-59.967815
26552		14.673355	-2.920734	-59.969332
26553		14.659154	-2.943594	-59.967687
26554		14.644514	-2.979496	-59.955905
26555		14.624056	-3.002806	-59.936567
26556		14.592224	-3.013756	-59.917316
26557		14.562993	-3.033280	-59.907251
26558		14.538810	-3.049616	-59.904622
26559		14.520336	-3.052817	-59.909605
26560		14.509043	-3.062277	-59.917691
26561		14.494812	-3.070696	-59.925127
26562		14.481583	-3.082200	-59.926123
26563		14.462081	-3.086590	-59.922924
26564		14.451269	-3.085007	-59.908600
26565		14.433734	-3.072828	-59.893952
26566		14.421843	-3.065820	-59.879602
26567		14.415149	-3.065584	-59.871226
26568		14.422751	-3.070816	-59.856720
26569		14.437440	-3.076946	-59.845782
26570		14.452278	-3.099755	-59.829836
26571		14.472156	-3.125223	-59.817064
26572		14.488692	-3.140119	-59.797323
26573		14.503155	-3.143539	-59.773803
26574		14.518928	-3.142238	-59.740671
26575		14.514881	-3.142330	-59.698228
26576		14.503606	-3.147247	-59.651069
26577		14.477488	-3.144511	-59.598659
26578		14.439907	-3.149650	-59.542340
26579		14.398716	-3.176091	-59.488498
26580		14.352521	-3.226518	-59.441932
26581		14.325982	-3.303913	-59.411248
26582		14.373326	-3.407839	-59.401014
26583		14.536129	-3.492449	-59.396037
26584		14.694721	-3.551709	-59.378978
26585		14.785348	-3.604312	-59.347581
26586		14.819486	-3.632468	-59.296470
26587		14.810351	-3.646821	-59.229511
26588		14.831281	-3.663369	-59.159840
26589		14.871815	-3.673778	-59.083699
26590		14.886045	-3.672535	-58.993439
26591		14.886101	-3.670490	-58.897184
26592		14.867105	-3.673845	-58.794705
26593		14.838922	-3.676719	-58.692989
26594		14.815592	-3.675098	-58.591851
26595		14.794444	-3.671165	-58.492263
26596		14.791682	-3.663210	-58.388752
26597		14.784246	-3.652188	-58.282103
26598		14.764721	-3.654648	-58.173971
26599		14.760572	-3.660832	-58.065031
26600		14.772195	-3.652421	-57.949688
26601		14.786187	-3.645975	-57.831520
26602		14.801024	-3.646405	-57.703911
26603		14.826308	-3.653527	-57.579916
26604		14.879829	-3.677955	-57.461007
26605		14.975831	-3.708155	-57.349937
26606		15.100220	-3.734298	-57.237604
26607		15.204596	-3.757070	-57.122344
26608		15.287319	-3.778264	-56.995341
26609		15.350041	-3.775317	-56.861872
26610		15.403619	-3.758367	-56.714735
26611		15.470102	-3.755238	-56.573669
26612		15.538795	-3.813865	-56.452908
26613		15.669226	-3.925552	-56.368299
26614		15.875155	-4.046925	-56.282234
26615		16.088003	-4.125120	-56.176179
26616		16.239642	-4.151742	-56.033946
26617		16.308096	-4.136416	-55.866479
26618		16.312122	-4.104230	-55.675216
26619		16.280753	-4.076300	-55.470584
26620		16.250020	-4.035462	-55.253012
26621		16.233512	-3.989642	-55.034839
26622		16.249410	-3.968965	-54.829061
26623		16.309845	-3.980144	-54.636189
26624		16.405500	-4.009033	-54.436546
26625		16.482472	-4.033749	-54.215535
26626		16.513405	-4.039773	-53.967321
26627		16.517333	-4.016835	-53.698297
26628		16.518605	-3.984154	-53.430088
26629		16.525682	-3.980247	-53.188932
26630		16.551839	-4.006651	-52.980258
26631		16.620386	-4.039146	-52.785310
26632		16.689546	-4.060094	-52.579524
26633		16.746005	-4.060788	-52.347488
26634		16.786274	-4.038874	-52.098585
26635		16.826266	-4.003907	-51.837643
26636		16.882353	-3.963575	-51.577045
26637		16.958632	-3.933047	-51.332923
26638		17.076345	-3.934477	-51.111982
26639		17.226966	-3.975667	-50.920828
26640		17.379228	-4.036508	-50.746252
26641		17.518377	-4.086897	-50.563726
26642		17.623162	-4.113892	-50.358493
26643		17.681608	-4.111473	-50.137498
26644		17.700704	-4.089403	-49.906448
26645		17.707103	-4.084598	-49.682140
26646		17.718547	-4.099928	-49.461464
26647		17.747015	-4.131067	-49.237513
26648		17.783268	-4.143800	-49.011374
26649		17.828328	-4.127993	-48.761525
26650		17.871345	-4.120146	-48.476750
26651		17.883142	-4.136768	-48.170945
26652		17.864476	-4.151338	-47.849758
26653		17.833959	-4.141286	-47.522928
26654		17.822729	-4.106372	-47.197268
26655		17.839729	-4.061303	-46.889705
26656		17.879859	-4.034634	-46.599403
26657		17.933351	-4.025055	-46.320704
26658		17.999956	-4.035078	-46.051909
26659		18.062364	-4.061858	-45.788946
26660		18.124550	-4.096267	-45.521254
26661		18.181269	-4.133519	-45.250613
26662		18.229900	-4.171624	-44.982483
26663		18.274074	-4.201682	-44.719345
26664		18.328702	-4.219085	-44.458786
26665		18.381491	-4.226480	-44.202586
26666		18.433004	-4.250204	-43.949984
26667		18.488659	-4.289377	-43.702166
26668		18.550124	-4.324909	-43.449947
26669		18.611155	-4.345629	-43.192500
26670		18.662107	-4.361205	-42.932213
26671		18.684160	-4.362420	-42.674546
26672		18.691584	-4.338064	-42.408795
26673		18.704694	-4.293628	-42.136806
26674		18.733049	-4.250350	-41.871372
26675		18.781973	-4.236527	-41.621191
26676		18.838875	-4.252136	-41.374955
26677		18.868604	-4.259759	-41.103894
26678		18.816147	-4.245940	-40.780122
26679		18.679658	-4.224539	-40.419300
26680		18.517057	-4.217507	-40.067563
26681		18.378824	-4.247757	-39.752890
26682		18.274827	-4.304599	-39.471363
26683		18.205136	-4.360858	-39.205002
26684		18.143956	-4.374749	-38.920210
26685		18.088820	-4.343757	-38.615378
26686		18.064923	-4.321264	-38.306550
26687		18.066728	-4.333192	-38.005067
26688		18.044058	-4.353025	-37.686187
26689		17.954599	-4.369116	-37.412869
26690		17.800540	-4.378790	-37.183883
26691		17.729858	-4.423367	-37.007844
26692		17.724753	-4.467780	-36.828809
26693		17.702588	-4.440340	-36.615183
26694		17.603301	-4.349238	-36.347016
26695		17.456454	-4.241796	-36.055255
26696		17.296113	-4.150917	-35.761509
26697		17.123507	-4.092879	-35.459118
26698		16.937669	-4.051113	-35.153062
26699		16.743064	-4.021787	-34.845598
26700		16.552399	-4.017564	-34.532856
26701		16.400651	-4.048810	-34.219915
26702		16.303743	-4.098333	-33.909915
26703		16.224530	-4.124229	-33.598216
26704		16.154137	-4.127921	-33.269679
26705		16.095819	-4.121837	-32.923127
26706		16.036920	-4.112765	-32.560360
26707		15.987403	-4.111913	-32.210670
26708		15.940222	-4.117887	-31.884811
26709		15.902303	-4.121931	-31.590467
26710		15.878071	-4.114520	-31.311219
26711		15.850992	-4.101592	-31.034294
26712		15.804136	-4.092296	-30.744901
26713		15.715396	-4.116183	-30.447488
26714		15.594437	-4.160182	-30.144569
26715		15.450583	-4.197528	-29.837878
26716		15.299464	-4.225934	-29.523229
26717		15.150034	-4.244913	-29.208653
26718		14.980804	-4.266164	-28.895509
26719		14.782481	-4.287806	-28.584668
26720		14.570673	-4.330404	-28.264316
26721		14.379799	-4.384402	-27.953281
26722		14.214452	-4.437446	-27.643676
26723		14.049758	-4.455787	-27.326667
26724		13.880390	-4.463850	-27.002578
26725		13.688994	-4.455776	-26.685338
26726		13.495319	-4.449403	-26.378033
26727		13.310875	-4.444233	-26.088361
26728		13.144401	-4.446516	-25.801852
26729		13.012245	-4.440640	-25.515737
26730		12.903340	-4.430013	-25.221273
26731		12.760117	-4.413416	-24.905579
26732		12.627049	-4.402596	-24.576339
26733		12.502314	-4.378196	-24.241091
26734		12.377311	-4.349003	-23.913437
26735		12.269999	-4.343804	-23.606123
26736		12.146509	-4.372781	-23.327510
26737		12.011838	-4.413032	-23.053997
26738		11.879743	-4.428633	-22.772511
26739		11.756587	-4.410596	-22.483439
26740		11.651467	-4.374967	-22.189234
26741		11.548669	-4.339591	-21.910805
26742		11.448378	-4.312215	-21.645270
26743		11.360836	-4.286598	-21.382589
26744		11.277934	-4.251948	-21.103558
26745		11.187121	-4.192456	-20.816822
26746		11.106909	-4.124916	-20.523400
26747		11.017875	-4.050008	-20.234258
26748		10.943167	-3.976740	-19.950042
26749		10.889783	-3.907828	-19.672479
26750		10.822547	-3.845213	-19.401455
26751		10.746179	-3.789183	-19.140735
26752		10.660598	-3.746311	-18.881887
26753		10.574891	-3.705224	-18.620021
26754		10.488238	-3.668243	-18.353784
26755		10.397398	-3.626594	-18.081678
26756		10.306772	-3.588829	-17.816517
26757		10.222948	-3.560922	-17.564682
26758		10.162920	-3.525097	-17.320095
26759		10.093650	-3.467362	-17.073412
26760		10.028325	-3.403424	-16.833197
26761		9.965583	-3.347865	-16.604525
26762		9.883947	-3.302950	-16.380127
26763		9.832516	-3.272383	-16.156826
26764		9.794306	-3.252166	-15.925975
26765		9.750593	-3.231945	-15.690423
26766		9.697550	-3.209392	-15.456904
26767		9.649884	-3.185329	-15.240297
26768		9.608987	-3.153130	-15.038065
26769		9.563761	-3.124263	-14.848254
26770		9.529369	-3.111012	-14.671291
26771		9.492482	-3.089559	-14.491550
26772		9.449028	-3.064674	-14.305408
26773		9.396366	-3.051381	-14.126970
26774		9.337227	-3.049826	-13.955598
26775		9.276880	-3.045678	-13.799377
26776		9.228488	-3.035363	-13.653312
26777		9.187425	-3.012853	-13.512938
26778		9.155595	-2.979930	-13.378037
26779		9.132924	-2.935729	-13.242903
26780		9.108369	-2.904320	-13.100886
26781		9.080151	-2.899795	-12.955930
26782		9.032263	-2.913541	-12.810411
26783		8.978978	-2.929820	-12.673412
26784		8.927202	-2.937914	-12.546856
26785		8.884508	-2.939224	-12.435716
26786		8.848268	-2.923083	-12.335645
26787		8.819017	-2.903739	-12.241708
26788		8.803866	-2.887318	-12.143163
26789		8.781392	-2.879112	-12.041396
26790		8.744369	-2.877342	-11.941104
26791		8.695836	-2.872852	-11.851424
26792		8.647865	-2.846364	-11.774548
26793		8.600300	-2.809238	-11.705221
26794		8.561052	-2.773237	-11.638937
26795		8.535226	-2.747486	-11.576154
26796		8.512782	-2.736744	-11.498888
26797		8.486689	-2.738459	-11.412627
26798		8.449208	-2.740027	-11.321866
26799		8.407024	-2.724867	-11.237067
26800		8.356874	-2.694113	-11.162838
26801		8.296308	-2.654510	-11.109823
26802		8.243601	-2.607517	-11.062807
26803		8.214731	-2.564993	-11.014802
26804		8.195518	-2.544829	-10.961671
26805		8.177440	-2.543252	-10.912853
26806		8.155876	-2.546378	-10.863747
26807		8.133286	-2.546313	-10.817288
26808		8.099592	-2.540657	-10.775961
26809		8.062501	-2.523621	-10.741817
26810		8.021409	-2.494713	-10.707345
26811		7.984855	-2.458338	-10.672957
26812		7.966184	-2.420920	-10.634392
26813		7.951464	-2.395693	-10.596366
26814		7.936817	-2.382357	-10.558464
26815		7.915876	-2.366129	-10.525921
26816		7.888318	-2.341709	-10.494728
26817		7.855982	-2.317778	-10.470160
26818		7.823326	-2.293172	-10.445690
26819		7.793291	-2.271510	-10.417987
26820		7.763487	-2.260552	-10.389635
26821		7.739595	-2.257227	-10.367192
26822		7.715774	-2.256035	-10.342461
26823		7.694026	-2.249600	-10.324320
26824		7.676890	-2.239271	-10.313618
26825		7.641155	-2.231904	-10.301905
26826		7.613776	-2.239352	-10.290620
26827		7.572915	-2.211631	-10.273739
26828		7.565230	-2.187873	-10.250098
26829		7.563874	-2.181987	-10.224740
26830		7.552087	-2.190840	-10.202813
26831		7.548446	-2.201864	-10.186281
26832		7.551165	-2.209443	-10.169205
26833		7.556899	-2.212405	-10.153929
26834		7.558292	-2.208721	-10.138164
26835		7.560035	-2.204650	-10.126850
26836		7.561530	-2.198865	-10.115866
26837		7.569928	-2.196197	-10.108873
26838		7.585140	-2.196402	-10.101585
26839		7.600044	-2.204450	-10.095001
26840		7.612310	-2.223421	-10.089677
26841		7.610264	-2.249122	-10.095637
26842		7.602033	-2.263713	-10.104900
26843		7.586752	-2.267354	-10.116100
26844		7.574131	-2.271744	-10.120819
26845		7.565561	-2.283124	-10.122326
26846		7.553127	-2.300633	-10.119516
26847		7.534169	-2.327495	-10.114661
26848		7.514853	-2.358244	-10.106774
26849		7.506383	-2.386742	-10.108684
26850		7.504270	-2.406265	-10.109465
26851		7.513230	-2.419764	-10.116751
26852		7.522236	-2.434083	-10.122302
26853		7.532869	-2.455136	-10.127884
26854		7.537429	-2.481843	-10.130235
26855		7.544547	-2.513585	-10.136456
26856		7.548953	-2.545535	-10.143164
26857		7.546816	-2.576620	-10.158200
26858		7.541660	-2.602459	-10.171565
26859		7.539273	-2.626754	-10.186003
26860		7.535804	-2.651909	-10.201697
26861		7.534466	-2.680147	-10.221150
26862		7.537370	-2.714498	-10.242543
26863		7.542482	-2.747356	-10.269573
26864		7.552195	-2.768414	-10.300501
26865		7.576107	-2.788839	-10.332557
26866		7.598775	-2.814592	-10.361528
26867		7.617485	-2.844098	-10.392636
26868		7.629473	-2.873346	-10.423522
26869		7.634286	-2.899191	-10.462264
26870		7.640186	-2.915290	-10.512262
26871		7.659288	-2.921067	-10.567951
26872		7.688325	-2.922282	-10.618109
26873		7.729344	-2.933750	-10.668287
26874		7.758454	-2.964851	-10.710545
26875		7.763956	-3.007428	-10.747710
26876		7.754524	-3.044617	-10.786730
26877		7.746439	-3.072480	-10.833949
26878		7.746479	-3.093365	-10.884669
26879		7.747635	-3.117465	-10.935673
26880		7.743705	-3.144138	-10.982266
26881		7.729266	-3.173800	-11.028856
26882		7.726766	-3.197574	-11.077381
26883		7.739922	-3.213080	-11.127359
26884		7.757053	-3.229121	-11.183323
26885		7.785176	-3.249588	-11.243225
26886		7.827415	-3.267849	-11.301885
26887		7.872614	-3.285827	-11.361973
26888		7.906722	-3.308436	-11.422904
26889		7.919574	-3.324283	-11.489835
26890		7.918754	-3.328180	-11.560453
26891		7.939178	-3.326399	-11.635341
26892		7.965348	-3.336011	-11.706630
26893		7.980052	-3.365124	-11.775847
26894		7.991020	-3.401893	-11.843661
26895		8.003639	-3.439940	-11.908075
26896		8.009941	-3.475737	-11.969370
26897		8.018766	-3.508881	-12.035378
26898		8.038356	-3.540679	-12.099807
26899		8.049406	-3.565825	-12.169618
26900		8.067700	-3.587521	-12.245945
26901		8.092382	-3.604766	-12.330061
26902		8.114725	-3.623654	-12.420880
26903		8.136588	-3.650677	-12.515071
26904		8.163039	-3.688871	-12.600274
26905		8.178340	-3.746362	-12.677047
26906		8.160800	-3.818846	-12.741349
26907		8.128025	-3.897455	-12.812486
26908		8.099477	-3.958753	-12.893150
26909		8.102183	-3.996283	-12.980710
26910		8.122544	-4.030246	-13.069015
26911		8.158253	-4.073645	-13.164118
26912		8.207460	-4.117550	-13.256808
26913		8.259484	-4.156112	-13.346637
26914		8.314440	-4.197297	-13.430706
26915		8.360332	-4.241458	-13.518405
26916		8.378411	-4.286893	-13.612936
26917		8.374424	-4.329123	-13.725587
26918		8.378518	-4.351901	-13.846276
26919		8.402688	-4.370129	-13.964817
26920		8.426013	-4.400164	-14.076946
26921		8.437035	-4.447328	-14.183070
26922		8.448214	-4.497747	-14.284961
26923		8.477159	-4.542959	-14.388661
26924		8.510668	-4.584700	-14.494260
26925		8.538039	-4.632203	-14.612100
26926		8.570785	-4.681899	-14.737971
26927		8.607458	-4.727369	-14.871176
26928		8.643309	-4.767312	-15.015996
26929		8.673971	-4.805641	-15.162676
26930		8.710289	-4.833961	-15.304025
26931		8.745576	-4.866712	-15.442249
26932		8.790132	-4.913287	-15.577132
26933		8.848139	-4.964783	-15.708127
26934		8.897419	-5.012843	-15.834289
26935		8.919959	-5.065294	-15.965034
26936		8.934572	-5.109456	-16.107396
26937		8.966876	-5.146697	-16.261953
26938		9.027381	-5.172817	-16.419671
26939		9.097361	-5.190828	-16.571804
26940		9.162569	-5.210041	-16.709881
26941		9.230604	-5.247392	-16.844080
26942		9.295641	-5.290679	-16.972707
26943		9.361267	-5.330018	-17.104642
26944		9.443267	-5.354946	-17.236508
26945		9.533423	-5.371657	-17.374300
26946		9.610873	-5.398602	-17.511259
26947		9.670352	-5.436387	-17.647355
26948		9.701464	-5.477939	-17.779411
26949		9.716113	-5.501998	-17.911036
26950		9.760961	-5.507851	-18.052172
26951		9.843051	-5.502170	-18.201372
26952		9.927462	-5.504362	-18.351486
26953		10.032238	-5.530191	-18.510365
26954		10.159679	-5.569196	-18.673362
26955		10.265583	-5.603484	-18.839413
26956		10.329634	-5.629516	-19.008808
26957		10.383852	-5.636811	-19.198731
26958		10.475568	-5.626744	-19.416836
26959		10.574163	-5.602003	-19.641290
26960		10.662640	-5.594112	-19.864580
26961		10.734527	-5.619213	-20.083682
26962		10.808136	-5.674489	-20.304022
26963		10.876844	-5.738470	-20.524503
26964		10.934844	-5.798441	-20.741778
26965		10.982224	-5.852011	-20.961681
26966		11.014357	-5.896836	-21.183011
26967		11.039739	-5.927262	-21.406889
26968		11.079438	-5.950822	-21.635247
26969		11.127607	-5.966181	-21.865905
26970		11.168356	-5.982864	-22.090178
26971		11.210849	-6.008690	-22.320135
26972		11.275307	-6.049756	-22.558788
26973		11.338345	-6.085906	-22.804682
26974		11.412883	-6.113625	-23.055558
26975		11.507674	-6.141248	-23.303285
26976		11.598817	-6.165575	-23.541512
26977		11.670432	-6.191805	-23.779955
26978		11.725893	-6.210244	-24.009171
26979		11.762797	-6.230146	-24.237270
26980		11.814849	-6.254326	-24.471985
26981		11.897452	-6.283809	-24.726641
26982		11.997857	-6.304735	-24.987490
26983		12.127408	-6.328339	-25.248998
26984		12.266396	-6.355908	-25.497336
26985		12.376995	-6.377519	-25.741855
26986		12.494158	-6.398868	-25.987723
26987		12.678353	-6.400854	-26.256473
26988		12.913506	-6.370316	-26.535222
26989		13.152271	-6.308131	-26.807736
26990		13.379851	-6.251693	-27.063316
26991		13.571451	-6.231712	-27.314549
26992		13.751888	-6.262402	-27.573932
26993		13.937061	-6.301725	-27.836959
26994		14.124579	-6.323858	-28.098518
26995		14.317028	-6.339910	-28.366976
26996		14.479946	-6.352643	-28.631398
26997		14.613361	-6.375555	-28.889139
26998		14.715093	-6.407195	-29.145561
26999		14.797566	-6.442127	-29.427614
27000		14.884770	-6.468823	-29.733950
27001		14.972510	-6.473430	-30.058317
27002		15.076427	-6.491640	-30.393495
27003		15.135172	-6.524341	-30.726145
27004		15.150554	-6.568638	-31.046902
27005		15.131308	-6.603522	-31.352639
27006		15.052175	-6.615516	-31.638551
27007		14.933359	-6.609898	-31.905851
27008		14.809014	-6.588784	-32.169236
27009		14.698296	-6.556985	-32.441541
27010		14.603763	-6.525432	-32.728064
27011		14.524312	-6.497309	-33.026711
27012		14.456544	-6.461543	-33.320866
27013		14.409346	-6.417824	-33.611605
27014		14.388641	-6.383497	-33.907308
27015		14.416722	-6.374420	-34.213680
27016		14.479132	-6.387896	-34.531314
27017		14.532950	-6.400123	-34.846972
27018		14.571282	-6.386159	-35.153915
27019		14.565086	-6.356082	-35.444182
27020		14.518345	-6.316031	-35.723925
27021		14.466055	-6.272480	-36.003188
27022		14.435994	-6.232897	-36.296207
27023		14.447188	-6.197348	-36.599455
27024		14.505865	-6.195232	-36.898041
27025		14.556200	-6.207871	-37.197376
27026		14.579940	-6.207179	-37.509391
27027		14.588929	-6.176209	-37.818469
27028		14.556652	-6.138419	-38.098803
27029		14.465205	-6.086899	-38.357088
27030		14.349083	-6.017740	-38.613534
27031		14.247665	-5.937856	-38.868827
27032		14.174674	-5.856783	-39.125414
27033		14.117216	-5.786314	-39.379513
27034		14.050033	-5.734257	-39.625883
27035		13.975775	-5.678002	-39.862521
27036		13.903516	-5.630533	-40.080932
27037		13.844703	-5.608262	-40.304921
27038		13.823178	-5.600764	-40.535936
27039		13.858871	-5.613379	-40.775500
27040		13.933442	-5.618895	-41.020334
27041		14.031006	-5.588575	-41.264248
27042		14.137193	-5.525948	-41.505274
27043		14.224545	-5.463524	-41.736079
27044		14.237772	-5.414227	-41.946922
27045		14.186825	-5.370925	-42.165972
27046		14.157361	-5.336853	-42.402526
27047		14.185383	-5.324592	-42.655720
27048		14.253638	-5.315398	-42.918646
27049		14.343793	-5.297662	-43.178513
27050		14.417306	-5.238256	-43.414783
27051		14.402799	-5.148552	-43.614904
27052		14.308679	-5.053701	-43.805627
27053		14.217488	-4.973228	-43.999981
27054		14.162081	-4.908636	-44.204011
27055		14.140790	-4.849478	-44.422011
27056		14.161320	-4.793344	-44.641824
27057		14.216642	-4.744219	-44.865272
27058		14.310930	-4.700399	-45.083458
27059		14.365318	-4.622035	-45.292643
27060		14.372822	-4.549274	-45.505219
27061		14.377603	-4.498727	-45.729743
27062		14.384064	-4.447542	-45.961491
27063		14.387682	-4.375083	-46.202019
27064		14.405763	-4.313952	-46.443768
27065		14.423838	-4.253196	-46.688958
27066		14.440046	-4.214892	-46.923146
27067		14.468594	-4.176742	-47.142013
27068		14.471467	-4.110887	-47.341732
27069		14.439554	-4.023965	-47.531881
27070		14.411377	-3.950431	-47.721423
27071		14.403934	-3.882649	-47.908353
27072		14.408925	-3.806917	-48.097160
27073		14.435444	-3.750177	-48.292954
27074		14.465817	-3.714121	-48.491707
27075		14.463678	-3.678253	-48.693081
27076		14.493832	-3.654059	-48.894441
27077		14.552561	-3.638812	-49.094352
27078		14.616748	-3.621277	-49.284432
27079		14.672190	-3.603242	-49.467585
27080		14.703307	-3.583929	-49.649719
27081		14.722069	-3.562582	-49.830011
27082		14.711765	-3.519505	-50.000859
27083		14.684423	-3.481489	-50.167958
27084		14.671535	-3.462613	-50.337288
27085		14.670288	-3.427146	-50.510631
27086		14.650190	-3.384185	-50.686638
27087		14.614375	-3.357208	-50.873505
27088		14.557558	-3.341163	-51.069340
27089		14.530658	-3.341133	-51.290834
27090		14.599481	-3.379809	-51.531272
27091		14.741477	-3.453035	-51.803892
27092		14.923170	-3.537826	-52.090855
27093		15.129728	-3.605932	-52.376171
27094		15.321785	-3.651409	-52.630526
27095		15.443024	-3.670378	-52.840227
27096		15.500859	-3.685803	-53.000712
27097		15.509962	-3.709511	-53.136474
27098		15.484845	-3.722607	-53.268246
27099		15.447923	-3.716747	-53.402435
27100		15.411923	-3.722190	-53.537874
27101		15.396733	-3.737452	-53.676136
27102		15.379462	-3.726654	-53.802717
27103		15.335756	-3.704684	-53.914540
27104		15.277738	-3.692206	-54.013631
27105		15.223645	-3.684198	-54.111877
27106		15.173014	-3.678621	-54.208898
27107		15.149891	-3.683933	-54.311309
27108		15.140965	-3.703971	-54.413827
27109		15.140960	-3.733567	-54.513221
27110		15.149739	-3.756788	-54.606578
27111		15.151575	-3.775445	-54.689601
27112		15.166648	-3.807348	-54.768339
27113		15.200587	-3.826124	-54.841874
27114		15.215980	-3.821823	-54.901435
27115		15.215923	-3.817181	-54.953975
27116		15.206725	-3.822416	-55.003797
27117		15.177772	-3.824397	-55.050672
27118		15.176806	-3.834054	-55.094880
27119		15.196187	-3.848944	-55.140241
27120		15.231990	-3.862334	-55.184427
27121		15.260420	-3.869147	-55.226857
27122		15.261405	-3.864747	-55.258758
27123		15.242090	-3.853624	-55.285967
27124		15.228633	-3.844123	-55.316895
27125		15.230314	-3.829870	-55.349164
27126		15.246604	-3.826359	-55.383250
27127		15.286300	-3.838167	-55.412995
27128		15.319176	-3.828618	-55.429705
27129		15.325100	-3.799910	-55.434687
27130		15.316992	-3.770310	-55.437156
27131		15.311222	-3.744954	-55.443282
27132		15.319246	-3.729504	-55.453078
27133		15.324528	-3.715430	-55.469111
27134		15.344515	-3.691584	-55.484713
27135		15.356922	-3.659390	-55.498657
27136		15.357991	-3.628750	-55.507702
27137		15.347466	-3.579785	-55.516587
27138		15.360322	-3.517972	-55.533095
27139		15.394938	-3.477477	-55.562302
27140		15.465846	-3.445290	-55.592465
27141		15.542936	-3.405459	-55.620453
27142		15.609425	-3.368590	-55.638239
27143		15.666285	-3.327749	-55.651231
27144		15.690528	-3.270867	-55.650828
27145		15.670879	-3.198497	-55.641516
27146		15.651373	-3.121599	-55.630502
27147		15.666138	-3.084600	-55.624607
27148		15.685522	-3.075937	-55.612918
27149		15.706599	-3.063515	-55.595482
27150		15.725376	-3.054076	-55.572914
27151		15.726325	-3.041909	-55.554668
27152		15.723598	-3.029600	-55.535745
27153		15.722888	-3.009408	-55.527904
27154		15.734770	-2.991833	-55.525622
27155		15.748567	-2.977536	-55.523898
27156		15.755020	-2.947568	-55.520163
27157		15.746115	-2.911807	-55.513314
27158		15.747131	-2.904286	-55.507231
27159		15.753362	-2.897125	-55.495904
27160		15.748942	-2.873061	-55.472809
27161		15.740250	-2.857618	-55.450633
27162		15.721476	-2.841362	-55.428611
27163		15.699674	-2.825298	-55.408811
27164		15.679007	-2.804878	-55.390151
27165		15.653798	-2.785124	-55.377470
27166		15.628571	-2.774272	-55.370023
27167		15.605182	-2.760936	-55.369653
27168		15.596361	-2.748289	-55.371689
27169		15.591640	-2.736554	-55.376741
27170		15.587156	-2.724895	-55.380556
27171		15.594966	-2.720165	-55.383539
27172		15.591165	-2.717586	-55.378229
27173		15.580931	-2.719364	-55.371345
27174		15.571227	-2.712213	-55.361213
27175		15.547243	-2.701577	-55.353387
27176		15.528140	-2.695569	-55.346971
27177		15.514366	-2.694881	-55.343520
27178		15.521080	-2.698307	-55.339683
27179		15.525849	-2.696645	-55.336471
27180		15.527352	-2.693434	-55.331953
27181		15.523972	-2.686238	-55.329063
27182		15.518693	-2.680775	-55.324486
27183		15.505977	-2.678575	-55.324657
27184		15.507019	-2.677073	-55.328212
27185		15.514133	-2.671066	-55.332594
27186		15.518128	-2.674689	-55.329646
27187		15.517892	-2.675377	-55.324830
27188		15.504010	-2.659437	-55.306723
27189		15.484346	-2.642829	-55.291805
27190		15.464321	-2.632902	-55.281852
27191		15.446513	-2.629741	-55.276220
27192		15.437098	-2.619196	-55.272885
27193		15.429095	-2.618936	-55.271491
27194		15.429774	-2.615659	-55.271343
27195		15.431845	-2.611386	-55.265638
27196		15.425560	-2.611776	-55.256512
27197		15.411199	-2.605354	-55.244076
27198		15.394451	-2.594186	-55.228961
27199		15.373197	-2.584359	-55.216396
27200		15.357548	-2.580369	-55.206459
27201		15.348682	-2.582962	-55.198241
27202		15.353089	-2.587234	-55.187608
27203		15.347252	-2.576658	-55.175119
27204		15.329029	-2.574930	-55.157584
27205		15.307119	-2.577744	-55.142579
27206		15.285704	-2.579168	-55.123019
27207		15.274813	-2.591957	-55.101882
27208		15.273535	-2.609249	-55.077658
27209		15.282085	-2.616629	-55.051848
27210		15.287375	-2.626644	-55.017758
27211		15.287922	-2.639563	-54.980308
27212		15.277821	-2.639687	-54.938134
27213		15.254835	-2.631519	-54.896278
27214		15.235873	-2.621709	-54.857123
27215		15.208015	-2.604303	-54.821319
27216		15.175194	-2.583660	-54.785259
27217		15.157374	-2.559064	-54.748376
27218		15.137687	-2.535461	-54.706739
27219		15.122998	-2.517607	-54.665877
27220		15.114638	-2.508244	-54.623665
27221		15.109856	-2.496383	-54.585802
27222		15.109684	-2.474006	-54.545384
27223		15.098778	-2.445765	-54.507934
27224		15.089383	-2.419635	-54.470518
27225		15.092880	-2.395632	-54.435586
27226		15.113067	-2.399076	-54.397773
27227		15.136287	-2.399543	-54.358117
27228		15.143370	-2.385016	-54.308300
27229		15.139318	-2.365218	-54.252885
27230		15.119579	-2.345075	-54.188640
27231		15.088531	-2.323270	-54.120942
27232		15.055609	-2.306107	-54.048952
27233		15.045322	-2.297078	-53.984382
27234		15.052550	-2.293580	-53.918825
27235		15.055936	-2.288887	-53.849896
27236		15.047866	-2.277541	-53.776782
27237		15.034621	-2.261052	-53.702388
27238		15.028619	-2.237421	-53.621265
27239		15.040626	-2.214424	-53.540715
27240		15.063678	-2.205439	-53.457448
27241		15.087072	-2.205662	-53.369659
27242		15.094581	-2.197731	-53.274100
27243		15.077130	-2.175707	-53.175278
27244		15.057410	-2.149380	-53.071705
27245		15.044349	-2.124204	-52.968083
27246		15.051519	-2.109834	-52.864920
27247		15.083315	-2.110165	-52.760558
27248		15.107792	-2.116684	-52.642950
27249		15.122870	-2.121338	-52.511950
27250		15.121440	-2.121612	-52.362426
27251		15.096767	-2.115090	-52.198649
27252		15.053098	-2.089173	-52.024094
27253		15.012983	-2.046811	-51.846063
27254		14.978611	-2.005327	-51.666773
27255		14.942556	-1.981350	-51.494356
27256		14.938510	-1.980968	-51.327010
27257		14.971826	-2.000957	-51.163908
27258		15.011333	-2.022918	-50.987392
27259		15.025499	-2.032821	-50.793982
27260		15.002234	-2.029531	-50.583433
27261		14.957064	-2.026748	-50.364496
27262		14.925085	-2.045186	-50.146348
27263		14.902877	-2.074689	-49.933033
27264		14.896699	-2.080659	-49.717082
27265		14.897580	-2.066653	-49.498832
27266		14.901480	-2.054350	-49.281079
27267		14.898073	-2.036911	-49.066196
27268		14.876398	-2.006857	-48.850134
27269		14.863227	-1.949836	-48.638467
27270		14.878996	-1.875859	-48.437385
27271		14.936868	-1.822281	-48.257504
27272		15.028124	-1.812524	-48.100417
27273		15.137569	-1.845203	-47.965168
27274		15.269034	-1.896620	-47.834220
27275		15.392744	-1.941556	-47.676224
27276		15.458454	-1.966090	-47.483348
27277		15.468480	-1.985466	-47.264228
27278		15.462680	-2.007008	-47.030230
27279		15.445267	-2.016710	-46.794400
27280		15.420657	-2.022743	-46.560719
27281		15.393429	-2.037977	-46.336893
27282		15.385370	-2.063820	-46.116323
27283		15.398297	-2.086925	-45.892638
27284		15.414501	-2.106667	-45.655863
27285		15.432609	-2.113751	-45.410637
27286		15.458847	-2.105166	-45.154003
27287		15.492016	-2.093466	-44.889781
27288		15.523177	-2.093828	-44.629414
27289		15.541654	-2.088723	-44.367622
27290		15.547459	-2.080576	-44.090942
27291		15.527232	-2.090351	-43.794557
27292		15.469911	-2.122725	-43.494096
27293		15.405365	-2.152153	-43.202420
27294		15.358206	-2.179862	-42.923916
27295		15.346653	-2.201252	-42.662802
27296		15.385504	-2.232082	-42.417805
27297		15.473907	-2.268855	-42.187420
27298		15.600635	-2.319372	-41.970621
27299		15.746148	-2.390380	-41.769153
27300		15.875693	-2.456245	-41.570152
27301		15.983724	-2.521197	-41.351024
27302		16.042071	-2.575143	-41.101541
27303		16.058859	-2.592451	-40.831851
27304		16.059309	-2.567694	-40.553069
27305		16.076953	-2.541141	-40.279341
27306		16.126434	-2.548641	-40.036317
27307		16.191893	-2.595295	-39.821504
27308		16.263769	-2.643863	-39.609339
27309		16.308656	-2.694822	-39.385718
27310		16.288117	-2.738550	-39.148469
27311		16.232786	-2.767960	-38.903450
27312		16.174027	-2.791503	-38.655404
27313		16.065131	-2.793202	-38.402605
27314		15.916918	-2.780266	-38.140742
27315		15.750828	-2.771714	-37.889924
27316		15.596408	-2.775368	-37.646509
27317		15.454292	-2.769234	-37.404196
27318		15.296377	-2.761780	-37.156791
27319		15.130145	-2.764394	-36.916524
27320		14.994161	-2.782674	-36.683858
27321		14.881846	-2.798865	-36.441464
27322		14.740400	-2.798779	-36.179527
27323		14.600781	-2.778665	-35.906903
27324		14.497806	-2.729414	-35.626670
27325		14.421418	-2.657340	-35.331845
27326		14.361101	-2.587741	-35.014684
27327		14.305494	-2.552445	-34.688175
27328		14.245279	-2.555244	-34.365399
27329		14.191989	-2.569851	-34.050925
27330		14.172078	-2.568792	-33.725542
27331		14.184722	-2.543790	-33.396370
27332		14.210085	-2.523492	-33.062983
27333		14.231359	-2.527517	-32.731707
27334		14.227335	-2.540758	-32.402489
27335		14.193406	-2.542669	-32.079581
27336		14.136387	-2.525939	-31.767743
27337		14.057701	-2.478185	-31.462670
27338		13.977476	-2.420064	-31.148560
27339		13.931990	-2.389947	-30.833367
27340		13.913731	-2.391147	-30.516802
27341		13.891589	-2.397769	-30.193528
27342		13.862095	-2.398793	-29.864111
27343		13.839101	-2.398984	-29.541353
27344		13.808327	-2.401270	-29.217845
27345		13.755959	-2.394172	-28.896129
27346		13.690069	-2.361065	-28.566775
27347		13.646508	-2.293960	-28.232572
27348		13.649860	-2.220505	-27.896072
27349		13.625916	-2.157433	-27.563192
27350		13.566241	-2.111216	-27.245748
27351		13.520572	-2.079315	-26.946604
27352		13.483860	-2.037583	-26.655732
27353		13.432486	-1.981302	-26.347490
27354		13.389045	-1.924914	-26.023117
27355		13.352425	-1.866165	-25.687790
27356		13.299462	-1.810212	-25.350045
27357		13.226514	-1.769281	-25.022469
27358		13.151151	-1.743120	-24.712586
27359		13.070297	-1.710529	-24.421095
27360		12.988149	-1.650768	-24.139966
27361		12.910211	-1.584506	-23.861256
27362		12.851557	-1.539275	-23.587133
27363		12.790794	-1.498974	-23.307396
27364		12.730513	-1.444080	-23.015028
27365		12.683217	-1.372882	-22.726708
27366		12.613933	-1.290926	-22.443513
27367		12.532586	-1.214567	-22.177624
27368		12.456238	-1.146988	-21.926557
27369		12.377614	-1.083433	-21.686837
27370		12.272372	-1.028066	-21.448148
27371		12.141583	-0.988756	-21.212769
27372		11.998442	-0.962116	-20.968621
27373		11.847304	-0.940027	-20.715329
27374		11.686255	-0.916405	-20.453194
27375		11.528586	-0.892693	-20.185756
27376		11.368141	-0.866386	-19.916249
27377		11.215248	-0.826952	-19.650001
27378		11.076942	-0.787163	-19.392301
27379		10.956827	-0.742433	-19.145658
27380		10.847518	-0.691736	-18.905579
27381		10.761878	-0.644972	-18.673637
27382		10.683334	-0.609299	-18.439409
27383		10.607744	-0.589149	-18.202010
27384		10.526096	-0.565856	-17.955257
27385		10.452221	-0.543946	-17.702915
27386		10.377151	-0.513291	-17.446329
27387		10.320918	-0.486843	-17.191202
27388		10.284703	-0.468234	-16.938036
27389		10.254417	-0.462114	-16.688764
27390		10.218401	-0.465039	-16.440836
27391		10.180150	-0.475344	-16.196427
27392		10.146584	-0.481271	-15.961632
27393		10.089082	-0.476799	-15.737506
27394		10.039182	-0.466931	-15.518282
27395		9.995448	-0.461243	-15.308328
27396		9.933262	-0.464334	-15.109897
27397		9.854608	-0.478956	-14.925905
27398		9.777944	-0.504326	-14.750128
27399		9.699919	-0.532263	-14.573986
27400		9.623194	-0.555778	-14.387452
27401		9.547604	-0.576694	-14.197455
27402		9.477686	-0.600267	-14.009176
27403		9.404284	-0.612926	-13.827807
27404		9.344700	-0.635913	-13.652951
27405		9.287800	-0.665592	-13.482622
27406		9.227114	-0.686790	-13.307640
27407		9.166666	-0.698112	-13.124378
27408		9.099669	-0.716815	-12.937800
27409		9.043095	-0.747713	-12.759928
27410		8.993802	-0.775115	-12.586279
27411		8.954198	-0.803164	-12.417769
27412		8.919031	-0.818386	-12.247414
27413		8.861345	-0.831395	-12.096984
27414		8.788778	-0.845035	-11.968689
27415		8.724704	-0.840774	-11.853504
27416		8.674295	-0.836048	-11.737446
27417		8.617710	-0.849583	-11.629633
27418		8.568734	-0.879076	-11.523912
27419		8.535453	-0.902504	-11.417127
27420		8.496344	-0.914480	-11.305866
27421		8.456757	-0.927641	-11.197082
27422		8.419187	-0.941342	-11.090881
27423		8.381583	-0.950468	-10.990223
27424		8.342478	-0.951534	-10.896586
27425		8.310299	-0.939732	-10.813142
27426		8.288992	-0.926880	-10.727561
27427		8.275287	-0.920268	-10.639741
27428		8.256698	-0.927370	-10.547857
27429		8.227722	-0.936294	-10.451913
27430		8.189340	-0.936791	-10.358973
27431		8.159603	-0.930203	-10.272719
27432		8.138092	-0.920597	-10.194287
27433		8.105095	-0.915600	-10.134252
27434		8.071191	-0.911380	-10.086407
27435		8.049533	-0.907061	-10.037767
27436		8.027800	-0.903798	-9.978929
27437		7.999170	-0.913657	-9.911079
27438		7.961306	-0.924165	-9.841807
27439		7.915517	-0.924319	-9.777292
27440		7.874649	-0.918313	-9.725970
27441		7.845312	-0.912540	-9.685216
27442		7.825355	-0.908433	-9.648359
27443		7.796478	-0.909274	-9.617922
27444		7.767917	-0.907897	-9.590893
27445		7.756405	-0.903611	-9.564767
27446		7.751989	-0.900519	-9.532089
27447		7.747720	-0.900253	-9.504258
27448		7.744307	-0.891088	-9.483265
27449		7.747470	-0.877471	-9.474355
27450		7.746583	-0.872162	-9.466061
27451		7.738806	-0.875390	-9.460009
27452		7.723259	-0.872104	-9.447314
27453		7.707409	-0.871019	-9.431302
27454		7.690898	-0.874480	-9.410032
27455		7.676816	-0.881510	-9.391908
27456		7.671524	-0.889368	-9.373770
27457		7.679930	-0.900708	-9.359535
27458		7.674089	-0.906550	-9.346644
27459		7.665489	-0.909708	-9.345516
27460		7.662154	-0.911736	-9.344926
27461		7.656561	-0.920434	-9.344713
27462		7.645027	-0.930183	-9.342611
27463		7.639279	-0.944404	-9.343151
27464		7.632214	-0.962664	-9.341397
27465		7.616494	-0.977380	-9.347907
27466		7.605191	-0.988221	-9.355269
27467		7.600715	-0.999176	-9.362210
27468		7.597448	-1.014755	-9.363892
27469		7.592005	-1.034985	-9.367331
27470		7.594443	-1.056451	-9.372407
27471		7.606232	-1.075238	-9.381575
27472		7.613382	-1.088380	-9.394079
27473		7.622704	-1.105191	-9.415196
27474		7.629103	-1.119867	-9.438883
27475		7.637204	-1.129428	-9.460190
27476		7.640210	-1.140994	-9.483704
27477		7.639079	-1.153310	-9.509898
27478		7.631725	-1.169412	-9.536375
27479		7.617661	-1.188260	-9.562764
27480		7.603073	-1.205777	-9.584118
27481		7.581304	-1.225750	-9.600198
27482		7.565646	-1.244832	-9.618642
27483		7.556938	-1.262492	-9.641499
27484		7.552629	-1.291169	-9.657417
27485		7.542587	-1.327611	-9.675700
27486		7.533879	-1.363142	-9.692037
27487		7.522178	-1.388599	-9.717285
27488		7.509761	-1.411703	-9.744647
27489		7.503493	-1.428154	-9.782556
27490		7.507583	-1.444900	-9.819611
27491		7.511087	-1.466785	-9.858236
27492		7.510280	-1.497206	-9.892295
27493		7.507210	-1.525496	-9.928229
27494		7.507921	-1.552977	-9.964131
27495		7.513149	-1.582387	-9.998549
27496		7.517057	-1.622001	-10.031637
27497		7.518035	-1.671761	-10.065805
27498		7.518958	-1.723300	-10.098300
27499		7.520560	-1.775534	-10.135666
27500		7.530457	-1.821592	-10.175306
27501		7.550760	-1.860957	-10.218153
27502		7.571210	-1.906314	-10.262749
27503		7.587623	-1.959746	-10.314035
27504		7.614006	-2.008823	-10.372516
27505		7.642089	-2.054414	-10.435014
27506		7.670240	-2.101811	-10.501610
27507		7.692743	-2.162628	-10.573569
27508		7.719428	-2.239844	-10.643499
27509		7.740060	-2.324540	-10.712819
27510		7.752178	-2.409049	-10.782712
27511		7.763174	-2.488900	-10.862237
27512		7.797139	-2.558647	-10.951358
27513		7.845237	-2.625876	-11.038915
27514		7.894275	-2.704491	-11.125729
27515		7.934124	-2.788408	-11.216000
27516		7.969561	-2.864251	-11.306614
27517		8.008089	-2.941532	-11.404011
27518		8.054161	-3.020062	-11.502453
27519		8.102809	-3.097521	-11.604385
27520		8.138685	-3.177330	-11.706700
27521		8.162247	-3.250880	-11.814579
27522		8.203671	-3.321954	-11.935273
27523		8.249219	-3.389268	-12.067625
27524		8.282761	-3.460879	-12.205265
27525		8.310862	-3.539821	-12.350013
27526		8.347696	-3.613135	-12.494309
27527		8.376184	-3.685441	-12.636927
27528		8.407829	-3.753981	-12.783989
27529		8.448620	-3.825813	-12.942026
27530		8.494721	-3.887843	-13.108674
27531		8.549365	-3.948132	-13.284396
27532		8.636778	-4.003941	-13.470793
27533		8.742727	-4.050829	-13.661872
27534		8.865033	-4.090475	-13.855370
27535		9.010056	-4.124982	-14.055614
27536		9.107066	-4.155744	-14.263284
27537		9.099704	-4.172792	-14.482777
27538		9.102408	-4.180398	-14.733287
27539		9.149702	-4.175884	-15.007304
27540		9.148257	-4.180788	-15.280526
27541		9.189583	-4.223535	-15.545044
27542		9.284833	-4.265114	-15.795476
27543		9.378086	-4.301985	-16.032578
27544		9.484712	-4.351049	-16.269589
27545		9.613542	-4.403574	-16.510588
27546		9.745176	-4.447983	-16.756042
27547		9.861333	-4.479640	-17.007810
27548		9.973588	-4.501348	-17.266578
27549		10.123962	-4.516311	-17.542494
27550		10.277626	-4.519664	-17.816815
27551		10.411280	-4.532307	-18.084683
27552		10.528431	-4.563084	-18.343645
27553		10.627123	-4.604349	-18.600878
27554		10.719856	-4.641007	-18.857531
27555		10.827156	-4.662143	-19.121036
27556		10.941343	-4.670880	-19.382564
27557		11.053802	-4.677245	-19.640864
27558		11.160556	-4.693534	-19.892128
27559		11.235701	-4.723873	-20.143943
27560		11.284508	-4.764163	-20.408785
27561		11.367260	-4.808705	-20.693477
27562		11.458995	-4.846438	-20.983159
27563		11.536933	-4.892458	-21.267185
27564		11.631116	-4.949093	-21.546748
27565		11.715624	-4.997580	-21.810424
27566		11.752824	-5.032054	-22.052952
27567		11.753797	-5.051080	-22.294850
27568		11.791304	-5.055196	-22.569344
27569		11.928220	-5.054659	-22.880607
27570		12.082638	-5.056209	-23.200962
27571		12.247694	-5.082753	-23.518192
27572		12.403213	-5.126825	-23.826226
27573		12.531262	-5.170136	-24.124743
27574		12.620153	-5.199026	-24.412861
27575		12.686835	-5.213531	-24.695333
27576		12.755366	-5.231268	-24.984604
27577		12.836157	-5.253601	-25.277283
27578		12.910098	-5.269785	-25.557533
27579		12.983360	-5.291753	-25.825470
27580		13.056122	-5.320213	-26.088923
27581		13.119942	-5.348552	-26.354674
27582		13.193895	-5.372185	-26.619281
27583		13.270898	-5.388824	-26.876604
27584		13.366797	-5.404317	-27.136736
27585		13.458260	-5.411959	-27.395851
27586		13.509712	-5.411830	-27.654695
27587		13.584788	-5.425470	-27.923399
27588		13.696510	-5.448900	-28.199117
27589		13.795338	-5.469682	-28.463281
27590		13.889395	-5.486307	-28.709817
27591		13.991066	-5.503320	-28.947659
27592		14.063003	-5.525103	-29.173360
27593		14.099535	-5.540978	-29.399604
27594		14.129865	-5.540596	-29.629922
27595		14.201703	-5.538637	-29.881281
27596		14.293285	-5.544323	-30.148586
27597		14.377626	-5.560240	-30.417584
27598		14.456607	-5.591409	-30.682260
27599		14.494590	-5.624518	-30.929429
27600		14.485707	-5.652256	-31.153759
27601		14.476119	-5.668662	-31.382684
27602		14.501099	-5.668353	-31.618257
27603		14.545120	-5.669415	-31.868082
27604		14.604537	-5.689544	-32.126559
27605		14.659099	-5.724547	-32.390139
27606		14.678702	-5.745444	-32.651332
27607		14.686509	-5.747441	-32.907873
27608		14.683019	-5.745476	-33.151301
27609		14.650387	-5.752400	-33.388260
27610		14.617459	-5.759843	-33.632450
27611		14.618845	-5.773614	-33.884487
27612		14.645648	-5.781207	-34.144095
27613		14.697931	-5.781889	-34.408551
27614		14.762055	-5.782071	-34.661131
27615		14.773460	-5.799403	-34.888332
27616		14.714037	-5.824396	-35.087329
27617		14.640321	-5.850189	-35.294685
27618		14.610430	-5.861851	-35.520577
27619		14.639142	-5.856552	-35.754219
27620		14.668911	-5.840914	-35.986827
27621		14.676928	-5.811109	-36.222719
27622		14.668857	-5.774058	-36.458149
27623		14.627814	-5.739210	-36.678993
27624		14.549672	-5.703541	-36.889435
27625		14.471282	-5.659650	-37.099928
27626		14.410345	-5.613692	-37.315330
27627		14.366810	-5.563400	-37.537899
27628		14.341806	-5.506135	-37.763156
27629		14.320306	-5.454520	-37.989544
27630		14.306055	-5.409474	-38.196451
27631		14.274258	-5.365694	-38.374695
27632		14.215808	-5.339752	-38.554685
27633		14.205768	-5.351274	-38.766568
27634		14.261792	-5.375155	-39.003222
27635		14.364208	-5.384273	-39.241714
27636		14.453199	-5.364275	-39.463126
27637		14.506203	-5.325600	-39.666474
27638		14.508967	-5.291005	-39.851806
27639		14.448819	-5.277825	-40.037472
27640		14.369201	-5.265730	-40.233411
27641		14.284349	-5.217654	-40.445898
27642		14.199349	-5.154583	-40.672486
27643		14.118851	-5.099473	-40.902949
27644		14.015530	-5.033866	-41.127937
27645		13.859078	-4.927828	-41.338676
27646		13.632880	-4.804522	-41.537332
27647		13.373173	-4.692258	-41.735879
27648		13.144270	-4.593282	-41.947176
27649		13.005589	-4.521701	-42.174755
27650		12.972999	-4.463151	-42.403215
27651		13.027263	-4.395259	-42.637312
27652		13.149088	-4.337226	-42.869347
27653		13.270649	-4.293939	-43.070927
27654		13.325822	-4.262254	-43.241590
27655		13.375904	-4.254258	-43.410239
27656		13.481266	-4.263227	-43.592776
27657		13.631971	-4.274125	-43.790948
27658		13.833069	-4.260647	-43.987810
27659		14.021170	-4.215629	-44.170732
27660		14.111918	-4.160166	-44.329421
27661		14.085350	-4.118119	-44.473104
27662		13.980317	-4.084744	-44.634950
27663		13.904634	-4.064977	-44.847170
27664		13.908979	-4.063048	-45.109164
27665		13.973696	-4.052360	-45.394949
27666		14.041485	-4.010072	-45.667958
27667		14.053133	-3.933828	-45.910201
27668		13.980606	-3.857131	-46.129658
27669		13.834344	-3.799290	-46.337722
27670		13.664657	-3.741096	-46.536591
27671		13.494794	-3.672940	-46.724433
27672		13.318255	-3.591132	-46.900620
27673		13.189721	-3.511239	-47.074587
27674		13.094736	-3.434053	-47.251837
27675		13.007692	-3.390350	-47.427740
27676		12.963450	-3.379427	-47.602191
27677		13.008671	-3.395496	-47.784643
27678		13.142757	-3.432387	-47.984547
27679		13.348870	-3.478604	-48.191866
27680		13.567694	-3.528995	-48.390741
27681		13.727776	-3.576894	-48.561375
27682		13.842205	-3.593782	-48.723093
27683		13.922959	-3.588753	-48.875953
27684		13.943232	-3.572692	-49.031740
27685		13.964322	-3.560450	-49.198385
27686		13.990531	-3.565692	-49.370255
27687		14.017674	-3.602668	-49.544649
27688		14.027881	-3.627317	-49.703399
27689		13.962066	-3.593083	-49.842950
27690		13.846682	-3.524655	-49.979159
27691		13.762023	-3.471344	-50.131799
27692		13.704034	-3.438880	-50.294240
27693		13.672648	-3.417563	-50.467085
27694		13.697716	-3.410682	-50.648982
27695		13.737950	-3.401260	-50.822417
27696		13.732979	-3.378181	-50.978531
27697		13.700494	-3.351056	-51.141156
27698		13.702797	-3.339070	-51.316310
27699		13.764687	-3.328933	-51.514585
27700		13.869795	-3.334718	-51.731213
27701		14.109302	-3.416569	-51.962189
27702		14.371140	-3.487190	-52.175010
27703		14.513746	-3.485628	-52.354895
27704		14.536320	-3.438906	-52.505241
27705		14.464111	-3.382487	-52.647799
27706		14.330683	-3.352128	-52.788274
27707		14.212422	-3.342540	-52.941455
27708		14.146537	-3.323774	-53.098111
27709		14.134164	-3.306450	-53.239257
27710		14.138456	-3.294384	-53.363184
27711		14.151701	-3.285277	-53.486371
27712		14.190876	-3.295936	-53.623002
27713		14.258021	-3.329499	-53.781417
27714		14.336314	-3.380002	-53.947713
27715		14.439544	-3.450181	-54.120676
27716		14.579284	-3.516635	-54.276035
27717		14.693609	-3.555914	-54.403991
27718		14.732292	-3.564049	-54.509288
27719		14.718578	-3.564835	-54.608736
27720		14.644808	-3.570068	-54.695966
27721		14.559082	-3.575327	-54.783529
27722		14.514695	-3.569113	-54.881888
27723		14.478860	-3.545704	-54.979160
27724		14.446689	-3.524201	-55.082961
27725		14.424707	-3.509419	-55.198209
27726		14.435112	-3.514838	-55.313560
27727		14.457512	-3.550630	-55.435249
27728		14.492946	-3.582046	-55.563803
27729		14.554053	-3.602861	-55.683992
27730		14.590091	-3.603666	-55.783366
27731		14.586692	-3.613202	-55.871522
27732		14.584634	-3.627599	-55.952204
27733		14.581260	-3.623929	-56.027948
27734		14.578130	-3.613691	-56.107974
27735		14.589811	-3.601788	-56.192346
27736		14.578673	-3.556386	-56.269149
27737		14.555777	-3.493113	-56.338444
27738		14.529616	-3.447439	-56.412172
27739		14.539405	-3.450426	-56.493832
27740		14.575475	-3.442313	-56.562779
27741		14.594194	-3.418266	-56.618598
27742		14.581412	-3.384145	-56.668244
27743		14.552389	-3.336913	-56.713806
27744		14.507419	-3.266357	-56.756776
27745		14.472796	-3.194521	-56.797490
27746		14.458203	-3.131460	-56.843708
27747		14.453153	-3.066767	-56.891839
27748		14.450594	-2.990665	-56.932378
27749		14.452598	-2.916856	-56.973094
27750		14.464659	-2.839969	-57.014216
27751		14.471625	-2.741806	-57.055856
27752		14.475814	-2.643572	-57.095948
27753		14.477025	-2.552934	-57.138375
27754		14.506330	-2.492423	-57.175687
27755		14.535664	-2.422619	-57.193689
27756		14.575078	-2.349550	-57.185282
27757		14.623711	-2.292033	-57.160172
27758		14.646952	-2.252790	-57.129131
27759		14.642540	-2.206465	-57.099060
27760		14.628488	-2.146851	-57.069938
27761		14.633532	-2.073205	-57.050315
27762		14.662653	-1.998683	-57.038830
27763		14.709681	-1.937777	-57.028690
27764		14.760953	-1.882246	-57.013564
27765		14.796501	-1.825813	-56.991119
27766		14.800207	-1.770630	-56.957228
27767		14.796185	-1.721635	-56.920696
27768		14.801287	-1.681537	-56.886994
27769		14.819922	-1.647010	-56.859410
27770		14.835090	-1.614766	-56.835092
27771		14.841457	-1.585422	-56.815737
27772		14.825628	-1.551231	-56.793952
27773		14.796209	-1.512174	-56.773702
27774		14.792197	-1.492462	-56.759678
27775		14.811074	-1.487589	-56.752893
27776		14.830603	-1.477869	-56.742492
27777		14.852807	-1.472042	-56.733134
27778		14.860979	-1.465193	-56.719995
27779		14.849455	-1.464459	-56.700381
27780		14.823680	-1.456400	-56.678589
27781		14.810742	-1.446119	-56.665754
27782		14.812245	-1.436914	-56.651457
27783		14.812290	-1.434110	-56.638940
27784		14.804378	-1.427618	-56.624051
27785		14.779908	-1.419579	-56.606079
27786		14.750097	-1.416868	-56.587267
27787		14.736910	-1.421939	-56.572293
27788		14.733074	-1.423133	-56.556569
27789		14.733507	-1.424791	-56.541214
27790		14.735983	-1.426623	-56.522921
27791		14.728820	-1.427301	-56.502686
27792		14.707386	-1.420206	-56.482588
27793		14.683284	-1.408191	-56.465099
27794		14.661982	-1.396727	-56.449217
27795		14.643436	-1.397638	-56.439024
27796		14.625643	-1.407940	-56.428718
27797		14.633128	-1.425795	-56.424942
27798		14.668596	-1.460449	-56.429749
27799		14.701155	-1.500210	-56.442466
27800		14.718170	-1.524644	-56.459581
27801		14.730075	-1.535545	-56.479907
27802		14.738144	-1.530694	-56.495931
27803		14.743094	-1.516460	-56.512896
27804		14.754239	-1.507275	-56.521949
27805		14.766492	-1.500711	-56.520690
27806		14.764876	-1.479112	-56.501973
27807		14.745239	-1.451377	-56.474426
27808		14.707259	-1.426485	-56.443846
27809		14.660544	-1.397539	-56.418820
27810		14.628777	-1.366727	-56.406012
27811		14.610844	-1.343313	-56.401712
27812		14.599701	-1.330489	-56.399799
27813		14.600006	-1.319079	-56.395941
27814		14.599609	-1.307839	-56.385456
27815		14.587558	-1.297845	-56.371329
27816		14.570531	-1.291892	-56.351659
27817		14.550008	-1.286792	-56.331128
27818		14.534650	-1.281673	-56.307742
27819		14.523077	-1.276612	-56.281369
27820		14.498343	-1.265544	-56.248588
27821		14.474619	-1.258516	-56.210528
27822		14.454614	-1.251442	-56.165801
27823		14.421530	-1.240504	-56.119950
27824		14.372838	-1.229082	-56.074561
27825		14.315498	-1.205047	-56.029333
27826		14.254716	-1.177661	-55.985389
27827		14.200216	-1.159094	-55.945362
27828		14.162527	-1.164332	-55.903557
27829		14.149154	-1.183564	-55.860977
27830		14.147133	-1.198813	-55.813664
27831		14.136181	-1.218543	-55.769408
27832		14.117403	-1.244879	-55.722612
27833		14.100209	-1.261633	-55.676669
27834		14.089954	-1.278829	-55.627716
27835		14.087782	-1.308053	-55.578954
27836		14.091074	-1.341613	-55.527446
27837		14.090938	-1.367638	-55.469738
27838		14.083651	-1.395107	-55.403673
27839		14.073447	-1.425903	-55.332919
27840		14.054090	-1.463320	-55.255847
27841		14.048470	-1.507505	-55.174598
27842		14.074331	-1.541609	-55.082212
27843		14.090874	-1.568469	-54.981607
27844		14.095276	-1.597931	-54.867718
27845		14.098378	-1.622621	-54.739314
